{
  "resourceType": "Bundle",
  "id": "bundle-transaction",
  "type": "transaction",
  "entry": [
    {
      "resource": {
        "resourceType": "Library",
        "id": "MitreTestScript-library-common-logic",
        "meta": {
          "versionId": "1",
          "lastUpdated": "2019-08-06T16:45:35.646+00:00"
        },
        "text": {
          "status": "generated",
          "div": "<div xmlns=\"http://www.w3.org/1999/xhtml\"><table class=\"grid dict\"><tr><th scope=\"row\"><b>Id: </b></th><td style=\"padding-left: 25px; padding-right: 25px;\">Library/library-common-logic/_history/2</td></tr><tr><th scope=\"row\"><b>Type: </b></th><td style=\"padding-right: 25px;\"><span><br/><span><span style=\"padding-left: 25px;\"><b>code: </b><span>logic-library</span></span></span></span></td></tr><tr style=\"vertical-align: top;\"><th rowspan=\"1\" scope=\"row\"><b>Identifier: </b></th><td style=\"padding-left: 25px; padding-right: 25px;\"><b>system: </b><span>http://ncqa.org/hedis/identifiers</span><br/><b>value: </b><span>L-CMN</span></td></tr><tr><th scope=\"row\"><b>Version: </b></th><td style=\"padding-left: 25px; padding-right: 25px;\">3.10.000</td></tr><tr><th scope=\"row\"><b>Title: </b></th><td style=\"padding-left: 25px; padding-right: 25px;\">NCQA Common Library (FHIR Version)</td></tr><tr><th scope=\"row\"><b>Status: </b></th><td style=\"padding-left: 25px; padding-right: 25px;\">active</td></tr><tr><th scope=\"row\"><b>Description: </b></th><td style=\"padding-left: 25px; padding-right: 25px;\">This library contains common expressions and terminology declarations used throughout the HEDIS measures.</td></tr><tr><th scope=\"row\"><b>Purpose: </b></th><td style=\"padding-left: 25px; padding-right: 25px;\">This library provides a mechanism to share common definitions used by multiple HEDIS measures.</td></tr><tr><th scope=\"row\"><b>Usage: </b></th><td style=\"padding-left: 25px; padding-right: 25px;\">This library should be used whenever common notions such as inpatient encounters, hospice determination, or participation are required within a measure definition.</td></tr><tr style=\"vertical-align: top;\"><th rowspan=\"1\" scope=\"row\"><b>Contributor: </b></th><td style=\"padding-left: 25px; padding-right: 25px;\"><b><span>author</span>: </b><span>National Committee for Quality Assurance</span></td></tr><tr style=\"vertical-align: top;\"><th rowspan=\"1\" scope=\"row\"><b>Related: </b></th><td style=\"padding-left: 25px; padding-right: 25px;\"><p style=\"margin-bottom: 5px;\"><b>type: </b><span>depends-on</span></p><p style=\"margin-bottom: 5px;\"><b>Resource: </b><br/><span><span style=\"padding-left: 25px;\"><b>reference: </b><span>Library/FHIRHelpers/_history/1</span></span></span></p></td></tr><tr style=\"vertical-align: top;\"><th rowspan=\"5\" scope=\"row\"><b>Data Requirements: </b></th><td style=\"padding-left: 25px; padding-right: 25px;\"><div xmlns=\"http://www.w3.org/1999/xhtml\"><p style=\"margin-bottom: 5px;\"><b>type: </b><span>Encounter</span></p><p style=\"margin-bottom: 5px;\"><b>code filter:</b><br/><span style=\"padding-left: 25px;\"><b>path: </b><span>type</span></span><br/><span style=\"padding-left: 25px;\"><b>valueset: </b><span>urn:oid:2.16.840.1.113762.1.4.1165.43</span></span></p></div></td></tr><tr style=\"vertical-align: top;\"><td style=\"padding-left: 25px; padding-right: 25px;\"><div xmlns=\"http://www.w3.org/1999/xhtml\"><p style=\"margin-bottom: 5px;\"><b>type: </b><span>Encounter</span></p><p style=\"margin-bottom: 5px;\"><b>code filter:</b><br/><span style=\"padding-left: 25px;\"><b>path: </b><span>type</span></span><br/><span style=\"padding-left: 25px;\"><b>valueset: </b><span>urn:oid:2.16.840.1.113883.3.666.5.307</span></span></p></div></td></tr><tr style=\"vertical-align: top;\"><td style=\"padding-left: 25px; padding-right: 25px;\"><div xmlns=\"http://www.w3.org/1999/xhtml\"><p style=\"margin-bottom: 5px;\"><b>type: </b><span>Task</span></p><p style=\"margin-bottom: 5px;\"><b>code filter:</b><br/><span style=\"padding-left: 25px;\"><b>path: </b><span>code</span></span><br/><span style=\"padding-left: 25px;\"><b>valueset: </b><span>urn:oid:2.16.840.1.113883.3.464.1003.101.12.1014</span></span></p></div></td></tr><tr style=\"vertical-align: top;\"><td style=\"padding-left: 25px; padding-right: 25px;\"><div xmlns=\"http://www.w3.org/1999/xhtml\"><p style=\"margin-bottom: 5px;\"><b>type: </b><span>Encounter</span></p><p style=\"margin-bottom: 5px;\"><b>code filter:</b><br/><span style=\"padding-left: 25px;\"><b>path: </b><span>type</span></span><br/><span style=\"padding-left: 25px;\"><b>valueset: </b><span>urn:oid:2.16.840.1.113883.3.666.5.307</span></span></p></div></td></tr><tr style=\"vertical-align: top;\"><td style=\"padding-left: 25px; padding-right: 25px;\"><div xmlns=\"http://www.w3.org/1999/xhtml\"><p style=\"margin-bottom: 5px;\"><b>type: </b><span>Task</span></p><p style=\"margin-bottom: 5px;\"><b>code filter:</b><br/><span style=\"padding-left: 25px;\"><b>path: </b><span>code</span></span><br/><span style=\"padding-left: 25px;\"><b>valueset: </b><span>urn:oid:2.16.840.1.113762.1.4.1108.15</span></span></p></div></td></tr>        <!-- Filter down to human readable content --><tr style=\"vertical-align: top;\"><th scope=\"row\"><b>Content: </b></th><td style=\"padding-left: 25px; padding-right: 25px;\"><b>type: </b><span>text/cql</span></td></tr><tr><td colspan=\"2\" style=\"padding-left: 25px; padding-right: 25px;\"><pre><code class=\"language-cql\">library NCQA_Common_FHIR version '3.10.000'\r\n\r\nusing FHIR version '3.0.0'\r\n\r\ninclude FHIRHelpers version '3.0.0' called FHIRHelpers\r\n\r\ncodesystem \"LOINC\": 'urn:oid:2.16.840.1.113883.6.1'\r\ncodesystem \"SNOMEDCT\": 'urn:oid:2.16.840.1.113883.6.96'\r\ncodesystem \"SNOMEDCT:2015-09\": 'urn:oid:2.16.840.1.113883.6.96' version 'urn:hl7:version:2015-09'\r\ncodesystem \"SNOMEDCT:2016-03\": 'urn:oid:2.16.840.1.113883.6.96' version 'urn:hl7:version:2016-03'\r\n\r\nvalueset \"Encounter Inpatient\": 'urn:oid:2.16.840.1.113883.3.666.5.307'\r\nvalueset \"Hospice care ambulatory\": 'urn:oid:2.16.840.1.113762.1.4.1108.15'\r\nvalueset \"Care Services in Long-Term Residential Facility\": 'urn:oid:2.16.840.1.113883.3.464.1003.101.12.1014'\r\nvalueset \"X Institutional SNP Value Set\": 'urn:oid:2.16.840.1.113762.1.4.1165.43'\r\nvalueset \"Commercial\": 'urn:oid:2.16.840.1.113762.1.4.1165.46'\r\nvalueset \"Medicaid\": 'urn:oid:2.16.840.1.113762.1.4.1165.45'\r\nvalueset \"Medicare\": 'urn:oid:2.16.840.1.113762.1.4.1165.44'\r\nvalueset \"NCQA Payer\": 'urn:oid:2.16.840.1.113762.1.4.1165.42'\r\n\r\ncode \"Birthdate\": '21112-8' from \"LOINC\" display 'Birthdate'\r\ncode \"Dead\": '419099009' from \"SNOMEDCT\" display 'Dead'\r\ncode \"Discharge to healthcare facility for hospice care (procedure)\": '428371000124100' from \"SNOMEDCT:2015-09\" display 'Discharge to healthcare facility for hospice care (procedure)'\r\ncode \"Discharge to home for hospice care (procedure)\": '428361000124107' from \"SNOMEDCT:2015-09\" display 'Discharge to home for hospice care (procedure)'\r\ncode \"Long term care hospital (environment)\": '32074000' from \"SNOMEDCT:2016-03\" display 'Long term care hospital (environment)'\r\ncode \"Patient transfer, to another health care facility (procedure)\": '19712007' from \"SNOMEDCT:2016-03\" display 'Patient transfer, to another health care facility (procedure)'\r\ncode \"Referral to long term care service (procedure)\": '417708006' from \"SNOMEDCT:2016-03\" display 'Referral to long term care service (procedure)'\r\n\r\nparameter \"Measurement Period\" Interval&lt;DateTime&gt;\r\n\r\ncontext Patient\r\n\r\ndefine \"Is Enrolled in Institutional SNP\":\r\n  exists ( [\"Encounter\": \"X Institutional SNP Value Set\"] SNP\r\n      where SNP.status in { 'in-progress', 'finished' }\r\n        and SNP.period overlaps \"Measurement Period\"\r\n  )\r\n\r\ndefine \"Is Living Long Term in Institution\":\r\n  exists ( [\"Encounter\": \"Encounter Inpatient\"] DischargeLongTerm\r\n      where DischargeLongTerm.status in { 'in-progress', 'finished' }\r\n        and ( FHIRHelpers.ToConcept(DischargeLongTerm.hospitalization.dischargeDisposition)~ \"Patient transfer, to another health care facility (procedure)\"\r\n            or FHIRHelpers.ToConcept(DischargeLongTerm.hospitalization.dischargeDisposition)~ \"Referral to long term care service (procedure)\"\r\n        )\r\n        and DischargeLongTerm.period ends during \"Measurement Period\"\r\n  )\n    // TODO: Consider whether this should be Procedure or Task? (See http://build.fhir.org/ig/cqframework/qi-core/Intervention.html#Intervention)\r\n    or exists ( [\"Task\": \"Care Services in Long-Term Residential Facility\"] LongTermOrder\r\n        where LongTermOrder.intent = 'order'\r\n          and ( LongTermOrder.authoredOn during \"Measurement Period\"\r\n              or LongTermOrder.executionPeriod overlaps \"Measurement Period\"\r\n          )\r\n    )\n    // TODO: For the mapping to task, both Order and Performed map to a Task with intent of order, the fact that\n    // the task is performed seems to be best captured by the presence of an executionPeriod... This would be\n    // worth some discussion with the Workflow Group on the intended representation here\n    //or exists ( [\"Task\": \"Care Services in Long-Term Residential Facility\"] LongTermPerformed\n    //    where LongTermPerformed.\n    //    LongTermPerformed.relevantPeriod overlaps \"Measurement Period\"\n    //)\n\n/*This is the standard NCQA Hospice exclusion logic from 3.6.2018*/\r\n\r\ndefine \"Has Hospice\":\r\n  exists ( [\"Encounter\": \"Encounter Inpatient\"] DischargeHospice\r\n      where DischargeHospice.status in { 'in-progress', 'finished' }\r\n        and ( FHIRHelpers.ToConcept(DischargeHospice.hospitalization.dischargeDisposition)~ \"Discharge to home for hospice care (procedure)\"\r\n            or FHIRHelpers.ToConcept(DischargeHospice.hospitalization.dischargeDisposition)~ \"Discharge to healthcare facility for hospice care (procedure)\"\r\n        )\r\n        and DischargeHospice.period ends during \"Measurement Period\"\r\n  )\r\n    or exists ( [\"Task\": \"Hospice care ambulatory\"] HospiceTask\r\n        where HospiceTask.intent = 'order'\r\n          and ( HospiceTask.authoredOn during \"Measurement Period\"\r\n              or HospiceTask.executionPeriod overlaps \"Measurement Period\"\r\n          )\r\n    )\n    // TODO: See discussion in \"Is Living Long Term in Institution\"\n    //or exists ( [\"Intervention, Order\": \"Hospice care ambulatory\"] HospiceOrder\n    //    where HospiceOrder.authorDatetime during \"Measurement Period\"\n    //)\n    //or exists ( [\"Intervention, Performed\": \"Hospice care ambulatory\"] HospicePerformed\n    //    where HospicePerformed.relevantPeriod overlaps \"Measurement Period\"\n    //)\n\n/*ToDate takes a given DateTime value and returns a DateTime with the time components \"zeroed\", and the timezone of the input value, for example */\r\n\r\ndefine function \"ToDate\"(Value DateTime):\r\n  DateTime(year from Value, month from Value, day from Value, 0, 0, 0, 0, timezone from Value)\n\n/*CalendarAgeInDaysAt calculates the calendar age (meaning the age without considering time components) in days*/\r\n\r\ndefine function \"CalendarAgeInDaysAt\"(BirthDateTime DateTime, AsOf DateTime):\r\n  days between ToDate(BirthDateTime)and ToDate(AsOf)\n\n/*CalendarAgeInDays calculates the calendar age (meaning the age without considering time components) in days as of today*/\r\n\r\ndefine function \"CalendarAgeInDays\"(BirthDateTime DateTime):\r\n  CalendarAgeInDaysAt(BirthDateTime, Today())\n\n/*CalendarAgeInMonthsAt calculates the calendar age (meaning the age without considering time components) in months*/\r\n\r\ndefine function \"CalendarAgeInMonthsAt\"(BirthDateTime DateTime, AsOf DateTime):\r\n  months between ToDate(BirthDateTime)and ToDate(AsOf)\r\n\r\ndefine function \"CalendarAgeInMonths\"(BirthDateTime DateTime):\r\n  CalendarAgeInMonthsAt(BirthDateTime, Today())\n\n/*calculates the difference in calendar days between the start and end of the given interval*/\r\n\r\ndefine function \"LengthInDays\"(Value Interval&lt;DateTime&gt;):\r\n  difference in days between start of Value and \r\n  end of Value\n\n/*CalendarAgeInYearsAt calculates the calendar age (meaning the age without considering time components) in years*/\r\n\r\ndefine function \"CalendarAgeInYearsAt\"(BirthDateTime DateTime, AsOf DateTime):\r\n  years between ToDate(BirthDateTime)and ToDate(AsOf)\n\n/*CalendarAgeInYears calculates the calendar age (meaning the age without considering time components) in years as of today */\r\n\r\ndefine function \"CalendarAgeInYears\"(BirthDateTime DateTime):\r\n  CalendarAgeInYearsAt(BirthDateTime, Today())\r\n</code></pre>\n                    \n                    \n                </td>\n            </tr>\n        \n        \n            \n            \n        \n    </table>\n</div>"
        },
        "url": "http://ncqa.org/fhir/us/hedis/Library/library-common-logic",
        "identifier": [
          {
            "system": "http://ncqa.org/hedis/identifiers",
            "value": "Library_CMN"
          }
        ],
        "version": "3.10.000",
        "name": "NCQACommon_FHIR",
        "title": "NCQA Common Library (FHIR Version)",
        "status": "active",
        "experimental": true,
        "type": {
          "coding": [
            {
              "code": "logic-library"
            }
          ]
        },
        "date": "2018-08-01",
        "publisher": "National Committee for Quality Assurance",
        "description": "This library contains common expressions and terminology declarations used throughout the HEDIS measures.",
        "purpose": "This library provides a mechanism to share common definitions used by multiple HEDIS measures.",
        "usage": "This library should be used whenever common notions such as inpatient encounters, hospice determination, or participation are required within a measure definition.",
        "approvalDate": "2018-08-14",
        "lastReviewDate": "2018-08-14",
        "effectivePeriod": {
          "start": "2018-01-01",
          "end": "2018-12-31"
        },
        "jurisdiction": [
          {
            "coding": [
              {
                "system": "urn:iso:std:iso:3166",
                "code": "US",
                "display": "United States of America (the)"
              }
            ],
            "text": "United States of America (the)"
          }
        ],
        "contributor": [
          {
            "type": "author",
            "name": "National Committee for Quality Assurance"
          }
        ],
        "contact": [
          {
            "telecom": [
              {
                "system": "url",
                "value": "http://ncqa.org"
              }
            ]
          }
        ],
        "copyright": "HEDIS® is a registered trademark of the National Committee for Quality Assurance (NCQA). The HEDIS measures and specifications were developed by and are owned by the National Committee for Quality Assurance (“NCQA”). NCQA holds a copyright in the HEDIS measures and specifications and may rescind or alter these measures and specifications at any time. Users of the HEDIS measures and specifications shall not have the right to alter, enhance or otherwise modify the HEDIS measures and specifications, and shall not disassemble, recompile or reverse engineer the HEDIS measures and specifications. Anyone desiring to use or reproduce the materials without modification for a non-commercial purpose may do so without obtaining any approval from NCQA. All commercial uses or requests for alteration of the HEDIS measures and specifications must be approved by NCQA and are subject to a license at the discretion of NCQA.\r\n\r\nHEDIS measures and specifications are not clinical guidelines, do not establish a standard of medical care and have not been tested for all potential applications. The measures and specifications are provided “as is” without warranty of any kind. NCQA makes no representations, warranties or endorsements about the quality of any product, test or protocol identified as numerator compliant or otherwise identified as meeting the requirements of a HEDIS measure or specification. NCQA also makes no representations, warranties or endorsements about the quality of any organization or clinician who uses or reports performance measures. NCQA has no liability to anyone who relies on HEDIS measures and specifications or data reflective of performance under such measures and specifications.\r\n\r\nNo measure rate resulting from calculations based on the HEDIS specifications may be called a HEDIS rate until it is audited and approved by an NCQA-certified HEDIS auditor. Until NCQA has approved a validation process and validates a calculated measure rate, users must prominently display a disclaimer near each uncertified calculated rate. Henceforth in this publication and in any other NCQA publication, “HEDIS measure” refers to the specifications and “HEDIS data” refers to and assumes data audited by an NCQA-certified auditor.\r\n\r\nLimited proprietary coding is contained in the measure specifications for convenience. Users of the proprietary code sets should obtain all necessary licenses from the owners of these code sets. NCQA disclaims all liability for use or accuracy of any coding contained in the specifications.\r\n\r\nThe American Medical Association holds a copyright to the CPT® codes contained in the measures specifications.\r\n\r\nSome measure specifications contain coding from LOINC® ([http://loinc.org](http://loinc.org)). The LOINC table, LOINC codes, LOINC panels and form file, LOINC linguistic variants file, LOINC/RSNA Radiology Playbook, and LOINC/IEEE Medical Device Code Mapping Table are copyright © 1995–2017, Regenstrief Institute, Inc. and the Logical Observation Identifiers Names and Codes (LOINC) Committee and is available at no cost under the license at [http://loinc.org/terms-of-use](http://loinc.org/terms-of-use).\r\n\r\nNo part of this publication may be reproduced or transmitted in any form or by any means, electronic or mechanical, including photocopy, recording or any information storage and retrieval system, without the written permission of NCQA.\r\n\r\n© 2018 by the National Committee for Quality Assurance, all rights reserved.",
        "relatedArtifact": [
          {
            "type": "depends-on",
            "resource": {
              "reference": "Library/MitreTestScript-library-fhir-helpers"
            }
          }
        ],
        "dataRequirement": [
          {
            "type": "Encounter",
            "codeFilter": [
              {
                "path": "type",
                "valueSetString": "urn:oid:2.16.840.1.113762.1.4.1165.43"
              }
            ]
          },
          {
            "type": "Encounter",
            "codeFilter": [
              {
                "path": "type",
                "valueSetString": "urn:oid:2.16.840.1.113883.3.666.5.307"
              }
            ]
          },
          {
            "type": "Task",
            "codeFilter": [
              {
                "path": "code",
                "valueSetString": "urn:oid:2.16.840.1.113883.3.464.1003.101.12.1014"
              }
            ]
          },
          {
            "type": "Encounter",
            "codeFilter": [
              {
                "path": "type",
                "valueSetString": "urn:oid:2.16.840.1.113883.3.666.5.307"
              }
            ]
          },
          {
            "type": "Task",
            "codeFilter": [
              {
                "path": "code",
                "valueSetString": "urn:oid:2.16.840.1.113762.1.4.1108.15"
              }
            ]
          }
        ],
        "content": [
          {
            "contentType": "application/elm+xml",
            "data": ""
          },
          {
            "contentType": "text/cql",
            "data": ""
          }
        ]
      },
      "request": {
        "method": "PUT",
        "url": "Library/MitreTestScript-library-common-logic"
      }
    },
    {
      "resource": {
        "resourceType": "Library",
        "id": "MitreTestScript-library-participation-logic",
        "meta": {
          "versionId": "1",
          "lastUpdated": "2019-08-06T16:45:35.693+00:00"
        },
        "text": {
          "status": "generated",
          "div": "<div xmlns=\"http://www.w3.org/1999/xhtml\"><table class=\"grid dict\"><tr><th scope=\"row\"><b>Id: </b></th><td style=\"padding-left: 25px; padding-right: 25px;\">Library/library-participation-logic/_history/11</td></tr><tr><th scope=\"row\"><b>Type: </b></th><td style=\"padding-right: 25px;\"><span><br/><span><span style=\"padding-left: 25px;\"><b>code: </b><span>logic-library</span></span></span></span></td></tr><tr style=\"vertical-align: top;\"><th rowspan=\"1\" scope=\"row\"><b>Identifier: </b></th><td style=\"padding-left: 25px; padding-right: 25px;\"><b>system: </b><span>http://ncqa.org/hedis/identifiers</span><br/><b>value: </b><span>L-PRT</span></td></tr><tr><th scope=\"row\"><b>Version: </b></th><td style=\"padding-left: 25px; padding-right: 25px;\">1.0.000</td></tr><tr><th scope=\"row\"><b>Title: </b></th><td style=\"padding-left: 25px; padding-right: 25px;\">Participation - Logic Library (FHIR)</td></tr><tr><th scope=\"row\"><b>Status: </b></th><td style=\"padding-left: 25px; padding-right: 25px;\">active</td></tr><tr><th scope=\"row\"><b>Description: </b></th><td style=\"padding-left: 25px; padding-right: 25px;\">This library contains the logic for determining participation and enrollment for HEDIS measures.</td></tr><tr style=\"vertical-align: top;\"><th rowspan=\"1\" scope=\"row\"><b>Contributor: </b></th><td style=\"padding-left: 25px; padding-right: 25px;\"><b><span>author</span>: </b><span>National Committee for Quality Assurance</span></td></tr><tr style=\"vertical-align: top;\"><th rowspan=\"1\" scope=\"row\"><b>Related: </b></th><td style=\"padding-left: 25px; padding-right: 25px;\"><p style=\"margin-bottom: 5px;\"><b>type: </b><span>depends-on</span></p><p style=\"margin-bottom: 5px;\"><b>Resource: </b><br/><span><span style=\"padding-left: 25px;\"><b>reference: </b><span>Library/FHIRHelpers/_history/1</span></span></span></p></td></tr><tr style=\"vertical-align: top;\"><th rowspan=\"6\" scope=\"row\"><b>Data Requirements: </b></th><td style=\"padding-left: 25px; padding-right: 25px;\"><div xmlns=\"http://www.w3.org/1999/xhtml\"><p style=\"margin-bottom: 5px;\"><b>type: </b><span>Coverage</span></p><p style=\"margin-bottom: 5px;\"><b>code filter:</b><br/><span style=\"padding-left: 25px;\"><b>path: </b><span>type</span></span><br/><span style=\"padding-left: 25px;\"><b>valueset: </b><span>urn:oid:2.16.840.1.113762.1.4.1165.46</span></span></p></div></td></tr><tr style=\"vertical-align: top;\"><td style=\"padding-left: 25px; padding-right: 25px;\"><div xmlns=\"http://www.w3.org/1999/xhtml\"><p style=\"margin-bottom: 5px;\"><b>type: </b><span>Coverage</span></p><p style=\"margin-bottom: 5px;\"><b>code filter:</b><br/><span style=\"padding-left: 25px;\"><b>path: </b><span>type</span></span><br/><span style=\"padding-left: 25px;\"><b>valueset: </b><span>urn:oid:2.16.840.1.113762.1.4.1165.44</span></span></p></div></td></tr><tr style=\"vertical-align: top;\"><td style=\"padding-left: 25px; padding-right: 25px;\"><div xmlns=\"http://www.w3.org/1999/xhtml\"><p style=\"margin-bottom: 5px;\"><b>type: </b><span>Coverage</span></p><p style=\"margin-bottom: 5px;\"><b>code filter:</b><br/><span style=\"padding-left: 25px;\"><b>path: </b><span>type</span></span><br/><span style=\"padding-left: 25px;\"><b>valueset: </b><span>urn:oid:2.16.840.1.113762.1.4.1165.45</span></span></p></div></td></tr><tr style=\"vertical-align: top;\"><td style=\"padding-left: 25px; padding-right: 25px;\"><div xmlns=\"http://www.w3.org/1999/xhtml\"><p style=\"margin-bottom: 5px;\"><b>type: </b><span>Coverage</span></p><p style=\"margin-bottom: 5px;\"><b>code filter:</b><br/><span style=\"padding-left: 25px;\"><b>path: </b><span>type</span></span><br/><span style=\"padding-left: 25px;\"><b>valueset: </b><span>urn:oid:2.16.840.1.113762.1.4.1165.46</span></span></p></div></td></tr><tr style=\"vertical-align: top;\"><td style=\"padding-left: 25px; padding-right: 25px;\"><div xmlns=\"http://www.w3.org/1999/xhtml\"><p style=\"margin-bottom: 5px;\"><b>type: </b><span>Coverage</span></p><p style=\"margin-bottom: 5px;\"><b>code filter:</b><br/><span style=\"padding-left: 25px;\"><b>path: </b><span>type</span></span><br/><span style=\"padding-left: 25px;\"><b>valueset: </b><span>urn:oid:2.16.840.1.113762.1.4.1165.45</span></span></p></div></td></tr><tr style=\"vertical-align: top;\"><td style=\"padding-left: 25px; padding-right: 25px;\"><div xmlns=\"http://www.w3.org/1999/xhtml\"><p style=\"margin-bottom: 5px;\"><b>type: </b><span>Coverage</span></p><p style=\"margin-bottom: 5px;\"><b>code filter:</b><br/><span style=\"padding-left: 25px;\"><b>path: </b><span>type</span></span><br/><span style=\"padding-left: 25px;\"><b>valueset: </b><span>urn:oid:2.16.840.1.113762.1.4.1165.44</span></span></p></div></td></tr>        <!-- Filter down to human readable content --><tr style=\"vertical-align: top;\"><th scope=\"row\"><b>Content: </b></th><td style=\"padding-left: 25px; padding-right: 25px;\"><b>type: </b><span>text/cql</span></td></tr><tr><td colspan=\"2\" style=\"padding-left: 25px; padding-right: 25px;\"><pre><code class=\"language-cql\">library Participation version '1.0.0'\r\n\r\nusing FHIR version '3.0.0'\r\n\r\ninclude FHIRHelpers version '3.0.0' called FHIRHelpers\r\n\r\nvalueset \"NCQA Payer\": 'http://ncqa.org/fhir/us/hedis/ValueSet/ncqa-payer' //'urn:oid:2.16.840.1.113762.1.4.1165.42'\r\nvalueset \"Commercial\": 'urn:oid:2.16.840.1.113762.1.4.1165.46'\r\nvalueset \"Medicaid\": 'urn:oid:2.16.840.1.113762.1.4.1165.45'\r\nvalueset \"Medicare\": 'urn:oid:2.16.840.1.113762.1.4.1165.44'\r\n\r\ncontext Patient\r\n\r\ndefine \"Medicaid Product\":\r\n  'medicaid'\r\n\r\ndefine \"Commercial Product\":\r\n  'commercial'\r\n\r\ndefine \"Medicare Product\":\r\n  'medicare'\n\n/*\n  Report in the product line based on which product they are enrolled in at a given date\n\t(generally the end of the measurement period) but continuous enrollment calculations\n\tshould consider all participation periods, regardless of product\n\t\n\tInput parameters:\n\t\tProduct Line: The product line being reported\n\t\tIndex Date: Generally measurement period, but could be tied to an event\n\t\tParticipation Period: Generally one year, two years, or twenty seven months, but could be based on an event\n\t\tAllowed Gap Days: Generally 45 days, but could be 0\n\t\t\n\tExample 1 - One year continuously enrolled\n\t\t\"Is Enrolled\"(ProductLine, end of \"Measurement Period\", \"Measurement Period\", 45)\n\t\t\n\tExample 2 - Two years continuously enrolled\n\t  \"Is Enrolled\"(ProductLine, end of \"Measurement Period\", Interval[start of \"Measurement Period\" - 1 year, end of \"Measurement Period\"], 45)\n\t\t\n\tExample 3 - Twenty seven months continuously enrolled\n\t\t\"Is Enrolled\"(ProductLine, end of \"Measurement Period\", Interval[start of \"Measurement Period\" - 2 years - 3 months, end of \"Measurement Period\"], 45)\n\t\t\n\tExample 4 - Continuously enrolled surrounding an index event such as a heart attack\n\t\t\"Is Enrolled\"(ProductLine, \"Date of Heart Attack\", Interval[\"Date of Heart Attack\", \"Date of Heart Attack\" + 18 months], 45)\n\t\t\n\tExample 5 - Continuously enrolled with no gaps during the 9 months prior to a birth and for the following year, allowing for a gap\n\t  \"Is Enrolled\"(ProductLine, \"Date Of Delivery\", Interval[\"Date Of Delivery\" - 9 months, \"Date Of Delivery\"], 0)\n\t\t  and \"Is Enrolled\"(ProductLine, \"Date Of Delivery\", Interval[\"Date Of Delivery\", \"Date Of Delivery\" + 1 year], 45)\n*/\r\n\r\ndefine function \"Is Enrolled\"(ProductLine String, IndexDate DateTime, ParticipationPeriod Interval&lt;DateTime&gt;, AllowedGapDays Integer):\r\n  case\n\t\t/* If this is not running for a specific product line, ignore enrollment considerations */\r\n    when ProductLine is null then true \r\n    else\n\t\t\t/* Is the patient enrolled in the given product line on the given index date? */ \"Is Enrolled On Date\"(ProductLine, IndexDate)\n\t\t\t/* Is the patient continuously enrolled in every year of the participation period */\r\n    and AllTrue((\"Enrollment Periods\"(ParticipationPeriod))EnrollmentPeriod\r\n        return \"Is Continuously Enrolled In Period\"(EnrollmentPeriod, if duration in months of EnrollmentPeriod &gt;= 6 then AllowedGapDays \r\n            else 0\r\n        )\r\n    )\r\n  end\n\t\n/*\nReturns all Commercial, Medicaid, and Medicare participation for the patient\n*/\r\n\r\ndefine \"Participation\":\r\n  [\"Coverage\": type in \"Commercial\"]\r\n    union [\"Coverage\": type in \"Medicaid\"]\r\n    union [\"Coverage\": type in \"Medicare\"]\r\n\r\ndefine function \"Is Enrolled On Date\"(ProductLine String, IndexDate DateTime):\r\n  exists ( ( case ProductLine\r\n      when \"Commercial Product\" then [\"Coverage\": type in \"Commercial\"]\r\n      when \"Medicare Product\" then [\"Coverage\": type in \"Medicare\"]\r\n      when \"Medicaid Product\" then [\"Coverage\": type in \"Medicaid\"] \r\n      else null \r\n    end ) P\r\n      where IndexDate during P.period\r\n  )\n\n/*\nReturns enrollment periods of up to a year ending at the end of the participation period.\nNote that this will not return more than 3 years (would need the expand from 1.3 to support more generally)\n\nFor example, given the following participation period:\n\n        10/1/16 1/1/17       1/1/18      12/31/18\n            [---||------------||------------]\n\nThe function will return the following enrollment periods:\n\n            [---][------------][------------]\n\t\t\t\t\t\t\nIn values:\nParticipation Period: Interval[@2016-10-01, @2018-12-31]\nEnrollment Periods: { Interval[@2016-10-01, @2016-12-31], Interval[@2017-01-01, @2017-12-31] Interval[@2018-01-01, @2018-12-31] }\n*/\r\n\r\ndefine function \"Enrollment Periods\"(ParticipationPeriod Interval&lt;DateTime&gt;):\r\n  ( { 3 years, 2 years, 1 year } ) Year\r\n    where \r\n    end of ParticipationPeriod - ( Year - 1 year ) after start of ParticipationPeriod\r\n    return Interval[Max({ successor of(\r\n        end of ParticipationPeriod - Year\r\n      ), start of ParticipationPeriod }\r\n    ), \r\n    end of ParticipationPeriod - ( Year - 1 year )]\n\n/*\n//Tests:\ndefine TestTwentySevenMonthParticipationPeriod: Interval[@2016-10-01, @2018-12-31]\ndefine TestExpectedTwentySevenMonthEnrollmentPeriods: { Interval[@2016-10-01, @2016-12-31], Interval[@2017-01-01, @2017-12-31], Interval[@2018-01-01, @2018-12-31] }\ndefine TestTwentySevenMonthEnrollmentPeriods: \"Enrollment Periods\"(TestTwentySevenMonthParticipationPeriod)\ndefine TestTwentySevenMonthPass: TestTwentySevenMonthEnrollmentPeriods = TestExpectedTwentySevenMonthEnrollmentPeriods\n\ndefine TestThreeYearParticipationPeriod: Interval[@2016-01-01, @2018-12-31]\ndefine TestExpectedThreeYearEnrollmentPeriods: { Interval[@2016-01-01, @2016-12-31], Interval[@2017-01-01, @2017-12-31], Interval[@2018-01-01, @2018-12-31] }\ndefine TestThreeYearEnrollmentPeriods: \"Enrollment Periods\"(TestThreeYearParticipationPeriod)\ndefine TestThreeYearPass: TestThreeYearEnrollmentPeriods = TestExpectedThreeYearEnrollmentPeriods\n\ndefine TestTwoYearParticipationPeriod: Interval[@2017-01-01, @2018-12-31]\ndefine TestExpectedTwoYearEnrollmentPeriods: { Interval[@2017-01-01, @2017-12-31], Interval[@2018-01-01, @2018-12-31] }\ndefine TestTwoYearEnrollmentPeriods: \"Enrollment Periods\"(TestTwoYearParticipationPeriod)\ndefine TestTwoYearPass: TestTwoYearEnrollmentPeriods = TestExpectedTwoYearEnrollmentPeriods\n\ndefine TestOneYearParticipationPeriod: Interval[@2018-01-01, @2018-12-31]\ndefine TestExpectedOneYearEnrollmentPeriods: { Interval[@2018-01-01, @2018-12-31] }\ndefine TestOneYearEnrollmentPeriods: \"Enrollment Periods\"(TestOneYearParticipationPeriod)\ndefine TestOneYearPass: TestOneYearEnrollmentPeriods = TestExpectedOneYearEnrollmentPeriods\n\ndefine TestNineMonthParticipationPeriod: Interval[@2018-03-01, @2018-12-31]\ndefine TestExpectedNineMonthEnrollmentPeriods: { Interval[@2018-03-01, @2018-12-31] }\ndefine TestNineMonthEnrollmentPeriods: \"Enrollment Periods\"(TestNineMonthParticipationPeriod)\ndefine TestNineMonthPass: TestNineMonthEnrollmentPeriods = TestExpectedNineMonthEnrollmentPeriods\n*/\n\n/*\nReturns the periods during which the patient had coverage during the given participation period\t\n*/\r\n\r\ndefine function \"Participation In Period\"(ParticipationPeriod Interval&lt;DateTime&gt;):\r\n  collapse ( Participation P\r\n      where P.period overlaps ParticipationPeriod\r\n      return all P.period\r\n        intersect ParticipationPeriod\r\n  )\n\n/*\nReturns the number of gap days in the given coverage periods, allowing only one gap.\nIf there is more than one gap, returns the maximum Integer\n*/\r\n\r\ndefine function \"Gap Days In Period\"(ParticipationPeriod Interval&lt;DateTime&gt;, Periods List&lt;Interval&lt;DateTime&gt;&gt;):\r\n  case Count(Periods)\r\n    when 1 then if Periods[0]starts day of ParticipationPeriod then difference in days between \r\n    end of Periods[0]and \r\n    end of ParticipationPeriod \r\n      else if Periods[0]ends day of ParticipationPeriod then difference in days between start of ParticipationPeriod and start of Periods[0]\r\n      else maximum Integer\r\n    when 2 then if Periods[0]starts day of ParticipationPeriod\r\n      and Periods[1]ends day of ParticipationPeriod then difference in days between \r\n    end of Periods[0]and start of Periods[1]\r\n      else maximum Integer \r\n    else maximum Integer \r\n  end\n\n/*\n//Tests:\ndefine TestParticipationPeriod: Interval[@2017-01-01, @2017-12-31]\ndefine Test1CoveragePeriods: { Interval[@2017-01-01, @2017-12-31] }\ndefine Test2CoveragePeriods: { Interval[@2017-01-01, @2017-12-15] }\ndefine Test3CoveragePeriods: { Interval[@2017-01-15, @2017-12-31] }\ndefine Test4CoveragePeriods: { Interval[@2017-01-01, @2017-11-15] }\ndefine Test5CoveragePeriods: { Interval[@2017-02-15, @2017-12-31] }\ndefine Test6CoveragePeriods: { Interval[@2017-01-01, @2017-10-15] }\ndefine Test7CoveragePeriods: { Interval[@2017-03-15, @2017-12-31] }\ndefine Test8CoveragePeriods: { Interval[@2017-01-15, @2017-11-15] }\ndefine Test9CoveragePeriods: { Interval[@2017-01-01, @2017-01-14], Interval[@2017-02-15, @2017-12-31] }\ndefine Test10CoveragePeriods: { Interval[@2017-01-01, @2017-01-14], Interval[@2017-03-15, @2017-12-31] }\ndefine Test11CoveragePeriods: { Interval[@2017-01-01, @2017-01-14], Interval[@2017-02-15, @2017-06-14], Interval[@2017-07-15, @2017-12-31] }\ndefine Test1CoverageGap: \"Gap Days In Period\"(TestParticipationPeriod, Test1CoveragePeriods)\ndefine Test2CoverageGap: \"Gap Days In Period\"(TestParticipationPeriod, Test2CoveragePeriods)\ndefine Test3CoverageGap: \"Gap Days In Period\"(TestParticipationPeriod, Test3CoveragePeriods)\ndefine Test4CoverageGap: \"Gap Days In Period\"(TestParticipationPeriod, Test4CoveragePeriods)\ndefine Test5CoverageGap: \"Gap Days In Period\"(TestParticipationPeriod, Test5CoveragePeriods)\ndefine Test6CoverageGap: \"Gap Days In Period\"(TestParticipationPeriod, Test6CoveragePeriods)\ndefine Test7CoverageGap: \"Gap Days In Period\"(TestParticipationPeriod, Test7CoveragePeriods)\ndefine Test8CoverageGap: \"Gap Days In Period\"(TestParticipationPeriod, Test8CoveragePeriods)\ndefine Test9CoverageGap: \"Gap Days In Period\"(TestParticipationPeriod, Test9CoveragePeriods)\ndefine Test10CoverageGap: \"Gap Days In Period\"(TestParticipationPeriod, Test10CoveragePeriods)\ndefine Test11CoverageGap: \"Gap Days In Period\"(TestParticipationPeriod, Test11CoveragePeriods)\ndefine Test1ExpectedGap: 0\ndefine Test2ExpectedGap: 16\ndefine Test3ExpectedGap: 14\ndefine Test4ExpectedGap: 46\ndefine Test5ExpectedGap: 45\ndefine Test6ExpectedGap: 77\ndefine Test7ExpectedGap: 73\ndefine Test8ExpectedGap: maximum Integer\ndefine Test9ExpectedGap: 32\ndefine Test10ExpectedGap: 60\ndefine Test11ExpectedGap: maximum Integer\n*/\r\n\r\ndefine function \"Is Continuously Enrolled In Period\"(EnrollmentPeriod Interval&lt;DateTime&gt;, AllowedGapDays Integer):\r\n  \"Gap Days In Period\"(EnrollmentPeriod, \"Participation In Period\"(EnrollmentPeriod))&lt;= AllowedGapDays\r\n</code></pre>\n                    \n                    \n                </td>\n            </tr>\n        \n        \n            \n            \n        \n    </table>\n</div>"
        },
        "url": "http://ncqa.org/fhir/us/hedis/Library/library-participation-logic",
        "identifier": [
          {
            "system": "http://ncqa.org/hedis/identifiers",
            "value": "Library_PRT"
          }
        ],
        "version": "1.0.0",
        "name": "Participation_FHIR",
        "title": "Participation - Logic Library (FHIR)",
        "status": "active",
        "experimental": true,
        "type": {
          "coding": [
            {
              "code": "logic-library"
            }
          ]
        },
        "date": "2018-08-01",
        "publisher": "National Committee for Quality Assurance",
        "description": "This library contains the logic for determining participation and enrollment for HEDIS measures.",
        "approvalDate": "2018-11-12",
        "lastReviewDate": "2018-11-12",
        "effectivePeriod": {
          "start": "2018-01-01",
          "end": "2018-12-31"
        },
        "jurisdiction": [
          {
            "coding": [
              {
                "system": "urn:iso:std:iso:3166",
                "code": "US",
                "display": "United States of America (the)"
              }
            ],
            "text": "United States of America (the)"
          }
        ],
        "contributor": [
          {
            "type": "author",
            "name": "National Committee for Quality Assurance"
          }
        ],
        "contact": [
          {
            "telecom": [
              {
                "system": "url",
                "value": "http://ncqa.org"
              }
            ]
          }
        ],
        "copyright": "HEDIS® is a registered trademark of the National Committee for Quality Assurance (NCQA). The HEDIS measures and specifications were developed by and are owned by the National Committee for Quality Assurance (“NCQA”). NCQA holds a copyright in the HEDIS measures and specifications and may rescind or alter these measures and specifications at any time. Users of the HEDIS measures and specifications shall not have the right to alter, enhance or otherwise modify the HEDIS measures and specifications, and shall not disassemble, recompile or reverse engineer the HEDIS measures and specifications. Anyone desiring to use or reproduce the materials without modification for a non-commercial purpose may do so without obtaining any approval from NCQA. All commercial uses or requests for alteration of the HEDIS measures and specifications must be approved by NCQA and are subject to a license at the discretion of NCQA. HEDIS measures and specifications are not clinical guidelines, do not establish a standard of medical care and have not been tested for all potential applications. The measures and specifications are provided “as is” without warranty of any kind. NCQA makes no representations, warranties or endorsements about the quality of any product, test or protocol identified as numerator compliant or otherwise identified as meeting the requirements of a HEDIS measure or specification. NCQA also makes no representations, warranties or endorsements about the quality of any organization or clinician who uses or reports performance measures. NCQA has no liability to anyone who relies on HEDIS measures and specifications or data reflective of performance under such measures and specifications. No measure rate resulting from calculations based on the HEDIS specifications may be called a HEDIS rate until it is audited and approved by an NCQA-certified HEDIS auditor. Until NCQA has approved a validation process and validates a calculated measure rate, users must prominently display a disclaimer near each uncertified calculated rate. Henceforth in this publication and in any other NCQA publication, “HEDIS measure” refers to the specifications and “HEDIS data” refers to and assumes data audited by an NCQA-certified auditor. Limited proprietary coding is contained in the measure specifications for convenience. Users of the proprietary code sets should obtain all necessary licenses from the owners of these code sets. NCQA disclaims all liability for use or accuracy of any coding contained in the specifications.The American Medical Association holds a copyright to the CPT® codes contained in the measures specifications. Some measure specifications contain coding from LOINC® ([http://loinc.org](http://loinc.org)). The LOINC table, LOINC codes, LOINC panels and form file, LOINC linguistic variants file, LOINC/RSNA Radiology Playbook, and LOINC/IEEE Medical Device Code Mapping Table are copyright © 1995–2017, Regenstrief Institute, Inc. and the Logical Observation Identifiers Names and Codes (LOINC) Committee and is available at no cost under the license at [http://loinc.org/terms-of-use](http://loinc.org/terms-of-use). No part of this publication may be reproduced or transmitted in any form or by any means, electronic or mechanical, including photocopy, recording or any information storage and retrieval system, without the written permission of NCQA. © 2018 by the National Committee for Quality Assurance, all rights reserved.",
        "relatedArtifact": [
          {
            "type": "depends-on",
            "resource": {
              "reference": "Library/MitreTestScript-library-fhir-helpers"
            }
          }
        ],
        "dataRequirement": [
          {
            "type": "Coverage",
            "codeFilter": [
              {
                "path": "type",
                "valueSetString": "urn:oid:2.16.840.1.113762.1.4.1165.46"
              }
            ]
          },
          {
            "type": "Coverage",
            "codeFilter": [
              {
                "path": "type",
                "valueSetString": "urn:oid:2.16.840.1.113762.1.4.1165.44"
              }
            ]
          },
          {
            "type": "Coverage",
            "codeFilter": [
              {
                "path": "type",
                "valueSetString": "urn:oid:2.16.840.1.113762.1.4.1165.45"
              }
            ]
          },
          {
            "type": "Coverage",
            "codeFilter": [
              {
                "path": "type",
                "valueSetString": "urn:oid:2.16.840.1.113762.1.4.1165.46"
              }
            ]
          },
          {
            "type": "Coverage",
            "codeFilter": [
              {
                "path": "type",
                "valueSetString": "urn:oid:2.16.840.1.113762.1.4.1165.45"
              }
            ]
          },
          {
            "type": "Coverage",
            "codeFilter": [
              {
                "path": "type",
                "valueSetString": "urn:oid:2.16.840.1.113762.1.4.1165.44"
              }
            ]
          }
        ],
        "content": [
          {
            "contentType": "application/elm+xml",
            "data": ""
          },
          {
            "contentType": "text/cql",
            "data": ""
          }
        ]
      },
      "request": {
        "method": "PUT",
        "url": "Library/MitreTestScript-library-participation-logic"
      }
    },
    {
      "resource": {
        "resourceType": "Library",
        "id": "MitreTestScript-library-fhir-model-definition",
        "meta": {
          "versionId": "1",
          "lastUpdated": "2019-05-02T10:09:02.680+00:00"
        },
        "url": "http://hl7.org/fhir/Library/library-fhir-model-definition",
        "identifier": [
          {
            "use": "official",
            "system": "http://example.org/fhir/cqi/ecqm/Library/Identifier",
            "value": "FHIR"
          }
        ],
        "version": "3.0.0",
        "name": "FHIR",
        "title": "FHIR Model Definition",
        "status": "active",
        "type": {
          "coding": [
            {
              "system": "http://hl7.org/fhir/library-type",
              "code": "model-definition"
            }
          ]
        },
        "date": "2016-07-08",
        "publisher": "Health Level 7 International - Clinical Quality Information Work Group",
        "description": "Model definition for the DSTU2 FHIR Model",
        "approvalDate": "2016-07-08",
        "lastReviewDate": "2016-07-08",
        "topic": [
          {
            "text": "FHIR"
          }
        ],
        "contact": [
          {
            "telecom": [
              {
                "system": "url",
                "value": "http://www.hl7.org/Special/committees/cqi/index.cfm"
              }
            ]
          }
        ],
        "content": [
          {
            "contentType": "application/xml",
            "url": "https://cqlrepository.org/fhir-modelinfo-3.0.0.xml"
          }
        ]
      },
      "request": {
        "method": "PUT",
        "url": "Library/MitreTestScript-library-fhir-model-definition"
      }
    },
    {
      "resource": {
        "resourceType": "Library",
        "id": "MitreTestScript-library-fhir-helpers",
        "meta": {
          "versionId": "1",
          "lastUpdated": "2019-05-02T10:08:57.557+00:00",
          "profile": [
            "http://hl7.org/fhir/us/cqfmeasures/StructureDefinition/library-cqfm"
          ]
        },
        "text": {
          "status": "generated",
          "div": "<div xmlns=\"http://www.w3.org/1999/xhtml\"><table class=\"grid dict\"><tr><th scope=\"row\"><b>Id: </b></th><td style=\"padding-left: 25px; padding-right: 25px;\">Library/library-fhir-helpers</td></tr><tr><th scope=\"row\"><b>Type: </b></th><td style=\"padding-right: 25px;\"><span><span><span style=\"padding-left: 25px;\"><b>system: </b><span>http://hl7.org/fhir/library-type</span><br/></span><span style=\"padding-left: 25px;\"><b>code: </b><span>logic-library</span></span></span></span></td></tr><tr style=\"vertical-align: top;\"><th rowspan=\"1\" scope=\"row\"><b>Identifier: </b></th><td style=\"padding-left: 25px; padding-right: 25px;\"><b>system: </b><span>http://example.org/fhir/cqi/ecqm/Library/Identifier</span><br/><b>value: </b><span>FHIRHelpers</span></td></tr><tr><th scope=\"row\"><b>Version: </b></th><td style=\"padding-left: 25px; padding-right: 25px;\">3.0.0</td></tr><tr><th scope=\"row\"><b>Title: </b></th><td style=\"padding-left: 25px; padding-right: 25px;\">FHIR Helpers</td></tr><tr><th scope=\"row\"><b>Status: </b></th><td style=\"padding-left: 25px; padding-right: 25px;\">active</td></tr><tr><th scope=\"row\"><b>Description: </b></th><td style=\"padding-left: 25px; padding-right: 25px;\">This library is used as an example in the FHIR Quality Measure Implementation Guide</td></tr>        <!-- Filter down to human readable content --><tr style=\"vertical-align: top;\"><th scope=\"row\"><b>Content: </b></th><td style=\"padding-left: 25px; padding-right: 25px;\"><b>type: </b><span>text/cql</span></td></tr><tr><td colspan=\"2\" style=\"padding-left: 25px; padding-right: 25px;\"><pre><code class=\"language-cql\">library FHIRHelpers version '3.0.0'\r\n\r\nusing FHIR version '3.0.0'\r\n\r\ndefine function ToInterval(period FHIR.Period):\r\n  if period is null then null \r\n    else Interval[period.\"start\".value, period.\"end\".value]\r\n\r\ndefine function ToQuantity(quantity FHIR.Quantity):\r\n  if quantity is null then null \r\n    else System.Quantity { value: quantity.value.value, unit: quantity.unit.value }\r\n\r\ndefine function ToInterval(range FHIR.Range):\r\n  if range is null then null \r\n    else Interval[ToQuantity(range.low), ToQuantity(range.high)]\r\n\r\ndefine function ToCode(coding FHIR.Coding):\r\n  if coding is null then null \r\n    else System.Code { code: coding.code.value, system: coding.system.value, version: coding.version.value, display: coding.display.value }\r\n\r\ndefine function ToConcept(concept FHIR.CodeableConcept):\r\n  if concept is null then null \r\n    else System.Concept { codes: concept.coding C\r\n    return ToCode(C), display: concept.text.value }\r\n\r\ndefine function ToString(value FHIR.uuid):\r\n  value.value\r\n\r\ndefine function ToString(value FHIR.TestScriptRequestMethodCode):\r\n  value.value\r\n\r\ndefine function ToString(value FHIR.ProvenanceEntityRole):\r\n  value.value\r\n\r\ndefine function ToString(value FHIR.UnitsOfTime):\r\n  value.value\r\n\r\ndefine function ToString(value FHIR.AddressType):\r\n  value.value\r\n\r\ndefine function ToString(value FHIR.AllergyIntoleranceCategory):\r\n  value.value\r\n\r\ndefine function ToString(value FHIR.SpecimenStatus):\r\n  value.value\r\n\r\ndefine function ToString(value FHIR.RestfulCapabilityMode):\r\n  value.value\r\n\r\ndefine function ToString(value FHIR.DetectedIssueSeverity):\r\n  value.value\r\n\r\ndefine function ToString(value FHIR.IssueSeverity):\r\n  value.value\r\n\r\ndefine function ToString(value FHIR.CareTeamStatus):\r\n  value.value\r\n\r\ndefine function ToString(value FHIR.DataElementStringency):\r\n  value.value\r\n\r\ndefine function ToString(value FHIR.VisionEyes):\r\n  value.value\r\n\r\ndefine function ToString(value FHIR.EncounterStatus):\r\n  value.value\r\n\r\ndefine function ToString(value FHIR.StructureDefinitionKind):\r\n  value.value\r\n\r\ndefine function ToString(value FHIR.PublicationStatus):\r\n  value.value\r\n\r\ndefine function ToString(value FHIR.ConsentDataMeaning):\r\n  value.value\r\n\r\ndefine function ToString(value FHIR.StructureMapSourceListMode):\r\n  value.value\r\n\r\ndefine function ToString(value FHIR.RequestStatus):\r\n  value.value\r\n\r\ndefine function ToString(value FHIR.QuestionnaireResponseStatus):\r\n  value.value\r\n\r\ndefine function ToString(value FHIR.SearchComparator):\r\n  value.value\r\n\r\ndefine function ToString(value FHIR.ChargeItemStatus):\r\n  value.value\r\n\r\ndefine function ToString(value FHIR.ActionParticipantType):\r\n  value.value\r\n\r\ndefine function ToString(value FHIR.AllergyIntoleranceType):\r\n  value.value\r\n\r\ndefine function ToString(value FHIR.DocumentRelationshipType):\r\n  value.value\r\n\r\ndefine function ToString(value FHIR.AllergyIntoleranceClinicalStatus):\r\n  value.value\r\n\r\ndefine function ToString(value FHIR.CarePlanActivityStatus):\r\n  value.value\r\n\r\ndefine function ToString(value FHIR.ActionList):\r\n  value.value\r\n\r\ndefine function ToString(value FHIR.ParticipationStatus):\r\n  value.value\r\n\r\ndefine function ToString(value FHIR.TestReportResult):\r\n  value.value\r\n\r\ndefine function ToString(value FHIR.ConceptMapGroupUnmappedMode):\r\n  value.value\r\n\r\ndefine function ToDateTime(value FHIR.instant):\r\n  value.value\r\n\r\ndefine function ToDateTime(value FHIR.dateTime):\r\n  value.value\r\n\r\ndefine function ToDate(value FHIR.date):\r\n  value.value\r\n\r\ndefine function ToString(value FHIR.DocumentMode):\r\n  value.value\r\n\r\ndefine function ToString(value FHIR.AssertionOperatorType):\r\n  value.value\r\n\r\ndefine function ToString(value FHIR.DaysOfWeek):\r\n  value.value\r\n\r\ndefine function ToString(value FHIR.IssueType):\r\n  value.value\r\n\r\ndefine function ToString(value FHIR.ContentType):\r\n  value.value\r\n\r\ndefine function ToString(value FHIR.StructureMapContextType):\r\n  value.value\r\n\r\ndefine function ToString(value FHIR.FamilyHistoryStatus):\r\n  value.value\r\n\r\ndefine function ToInteger(value FHIR.positiveInt):\r\n  value.value\r\n\r\ndefine function ToString(value FHIR.ClinicalImpressionStatus):\r\n  value.value\r\n\r\ndefine function ToString(value FHIR.AssertionResponseTypes):\r\n  value.value\r\n\r\ndefine function ToString(value FHIR.RequestIntent):\r\n  value.value\r\n\r\ndefine function ToString(value FHIR.NarrativeStatus):\r\n  value.value\r\n\r\ndefine function ToString(value FHIR.MeasmntPrinciple):\r\n  value.value\r\n\r\ndefine function ToString(value FHIR.ConsentExceptType):\r\n  value.value\r\n\r\ndefine function ToString(value FHIR.string):\r\n  value.value\r\n\r\ndefine function ToString(value FHIR.ActionRequiredBehavior):\r\n  value.value\r\n\r\ndefine function ToString(value FHIR.EndpointStatus):\r\n  value.value\r\n\r\ndefine function ToString(value FHIR.GuidePageKind):\r\n  value.value\r\n\r\ndefine function ToString(value FHIR.GuideDependencyType):\r\n  value.value\r\n\r\ndefine function ToString(value FHIR.ResourceVersionPolicy):\r\n  value.value\r\n\r\ndefine function ToString(value FHIR.MedicationRequestStatus):\r\n  value.value\r\n\r\ndefine function ToString(value FHIR.MedicationAdministrationStatus):\r\n  value.value\r\n\r\ndefine function ToString(value FHIR.ActionCardinalityBehavior):\r\n  value.value\r\n\r\ndefine function ToString(value FHIR.MedicationRequestIntent):\r\n  value.value\r\n\r\ndefine function ToString(value FHIR.NamingSystemIdentifierType):\r\n  value.value\r\n\r\ndefine function ToString(value FHIR.ImmunizationStatusCodes):\r\n  value.value\r\n\r\ndefine function ToString(value FHIR.AccountStatus):\r\n  value.value\r\n\r\ndefine function ToString(value FHIR.MedicationDispenseStatus):\r\n  value.value\r\n\r\ndefine function ToString(value FHIR.ConfidentialityClassification):\r\n  value.value\r\n\r\ndefine function ToString(value FHIR.IdentifierUse):\r\n  value.value\r\n\r\ndefine function ToString(value FHIR.DigitalMediaType):\r\n  value.value\r\n\r\ndefine function ToString(value FHIR.StructureMapTargetListMode):\r\n  value.value\r\n\r\ndefine function ToString(value FHIR.TestReportParticipantType):\r\n  value.value\r\n\r\ndefine function ToString(value FHIR.BindingStrength):\r\n  value.value\r\n\r\ndefine function ToString(value FHIR.RequestPriority):\r\n  value.value\r\n\r\ndefine function ToString(value FHIR.ParticipantRequired):\r\n  value.value\r\n\r\ndefine function ToString(value FHIR.DiscriminatorType):\r\n  value.value\r\n\r\ndefine function ToString(value FHIR.XPathUsageType):\r\n  value.value\r\n\r\ndefine function ToString(value FHIR.StructureMapInputMode):\r\n  value.value\r\n\r\ndefine function ToString(value FHIR.InstanceAvailability):\r\n  value.value\r\n\r\ndefine function ToString(value FHIR.id):\r\n  value.value\r\n\r\ndefine function ToString(value FHIR.LinkageType):\r\n  value.value\r\n\r\ndefine function ToString(value FHIR.ReferenceHandlingPolicy):\r\n  value.value\r\n\r\ndefine function ToString(value FHIR.MedicationStatus):\r\n  value.value\r\n\r\ndefine function ToString(value FHIR.FilterOperator):\r\n  value.value\r\n\r\ndefine function ToString(value FHIR.NamingSystemType):\r\n  value.value\r\n\r\ndefine function ToString(value FHIR.ResearchStudyStatus):\r\n  value.value\r\n\r\ndefine function ToString(value FHIR.ExtensionContext):\r\n  value.value\r\n\r\ndefine function ToString(value FHIR.FHIRDefinedType):\r\n  value.value\r\n\r\ndefine function ToString(value FHIR.AuditEventOutcome):\r\n  value.value\r\n\r\ndefine function ToString(value FHIR.ActionRelationshipType):\r\n  value.value\r\n\r\ndefine function ToString(value FHIR.ConstraintSeverity):\r\n  value.value\r\n\r\ndefine function ToString(value FHIR.EventCapabilityMode):\r\n  value.value\r\n\r\ndefine function ToString(value FHIR.ContractResourceStatusCodes):\r\n  value.value\r\n\r\ndefine function ToString(value FHIR.ResearchSubjectStatus):\r\n  value.value\r\n\r\ndefine function ToString(value FHIR.UDIEntryType):\r\n  value.value\r\n\r\ndefine function ToString(value FHIR.DeviceMetricCategory):\r\n  value.value\r\n\r\ndefine function ToString(value FHIR.TestReportActionResult):\r\n  value.value\r\n\r\ndefine function ToString(value FHIR.StructureMapTransform):\r\n  value.value\r\n\r\ndefine function ToString(value FHIR.ResponseType):\r\n  value.value\r\n\r\ndefine function ToDecimal(value FHIR.decimal):\r\n  value.value\r\n\r\ndefine function ToString(value FHIR.AggregationMode):\r\n  value.value\r\n\r\ndefine function ToString(value FHIR.CapabilityStatementKind):\r\n  value.value\r\n\r\ndefine function ToString(value FHIR.AllergyIntoleranceVerificationStatus):\r\n  value.value\r\n\r\ndefine function ToString(value FHIR.EventTiming):\r\n  value.value\r\n\r\ndefine function ToString(value FHIR.GoalStatus):\r\n  value.value\r\n\r\ndefine function ToString(value FHIR.SearchParamType):\r\n  value.value\r\n\r\ndefine function ToString(value FHIR.SystemRestfulInteraction):\r\n  value.value\r\n\r\ndefine function ToString(value FHIR.ActionGroupingBehavior):\r\n  value.value\r\n\r\ndefine function ToString(value FHIR.StructureMapModelMode):\r\n  value.value\r\n\r\ndefine function ToString(value FHIR.TaskStatus):\r\n  value.value\r\n\r\ndefine function ToString(value FHIR.AdverseEventCausality):\r\n  value.value\r\n\r\ndefine function ToString(value FHIR.SubscriptionChannelType):\r\n  value.value\r\n\r\ndefine function ToString(value FHIR.GraphCompartmentRule):\r\n  value.value\r\n\r\ndefine function ToString(value FHIR.AssertionDirectionType):\r\n  value.value\r\n\r\ndefine function ToString(value FHIR.CarePlanIntent):\r\n  value.value\r\n\r\ndefine function ToString(value FHIR.SlicingRules):\r\n  value.value\r\n\r\ndefine function ToString(value FHIR.ExplanationOfBenefitStatus):\r\n  value.value\r\n\r\ndefine function ToString(value FHIR.ConsentState):\r\n  value.value\r\n\r\ndefine function ToString(value FHIR.AdverseEventCategory):\r\n  value.value\r\n\r\ndefine function ToString(value FHIR.LinkType):\r\n  value.value\r\n\r\ndefine function ToString(value FHIR.AllergyIntoleranceCriticality):\r\n  value.value\r\n\r\ndefine function ToString(value FHIR.MedicationRequestPriority):\r\n  value.value\r\n\r\ndefine function ToString(value FHIR.ConceptMapEquivalence):\r\n  value.value\r\n\r\ndefine function ToString(value FHIR.FHIRAllTypes):\r\n  value.value\r\n\r\ndefine function ToString(value FHIR.PropertyRepresentation):\r\n  value.value\r\n\r\ndefine function ToString(value FHIR.AuditEventAction):\r\n  value.value\r\n\r\ndefine function ToString(value FHIR.TriggerType):\r\n  value.value\r\n\r\ndefine function ToString(value FHIR.SearchModifierCode):\r\n  value.value\r\n\r\ndefine function ToString(value FHIR.CompositionStatus):\r\n  value.value\r\n\r\ndefine function ToString(value FHIR.AppointmentStatus):\r\n  value.value\r\n\r\ndefine function ToString(value FHIR.MessageSignificanceCategory):\r\n  value.value\r\n\r\ndefine function ToString(value FHIR.EventStatus):\r\n  value.value\r\n\r\ndefine function ToString(value FHIR.OperationParameterUse):\r\n  value.value\r\n\r\ndefine function ToString(value FHIR.ListMode):\r\n  value.value\r\n\r\ndefine function ToString(value FHIR.ActionConditionKind):\r\n  value.value\r\n\r\ndefine function ToString(value FHIR.ObservationStatus):\r\n  value.value\r\n\r\ndefine function ToString(value FHIR.qualityType):\r\n  value.value\r\n\r\ndefine function ToString(value FHIR.AdministrativeGender):\r\n  value.value\r\n\r\ndefine function ToString(value FHIR.ResourceType):\r\n  value.value\r\n\r\ndefine function ToString(value FHIR.QuestionnaireItemType):\r\n  value.value\r\n\r\ndefine function ToBoolean(value FHIR.boolean):\r\n  value.value\r\n\r\ndefine function ToString(value FHIR.StructureMapGroupTypeMode):\r\n  value.value\r\n\r\ndefine function ToString(value FHIR.DeviceMetricCalibrationType):\r\n  value.value\r\n\r\ndefine function ToString(value FHIR.code):\r\n  value.value\r\n\r\ndefine function ToString(value FHIR.SupplyRequestStatus):\r\n  value.value\r\n\r\ndefine function ToString(value FHIR.ActionSelectionBehavior):\r\n  value.value\r\n\r\ndefine function ToString(value FHIR.EncounterLocationStatus):\r\n  value.value\r\n\r\ndefine function ToString(value FHIR.SupplyDeliveryStatus):\r\n  value.value\r\n\r\ndefine function ToString(value FHIR.DiagnosticReportStatus):\r\n  value.value\r\n\r\ndefine function ToString(value FHIR.FlagStatus):\r\n  value.value\r\n\r\ndefine function ToString(value FHIR.CarePlanStatus):\r\n  value.value\r\n\r\ndefine function ToString(value FHIR.ConditionClinicalStatusCodes):\r\n  value.value\r\n\r\ndefine function ToString(value FHIR.ListStatus):\r\n  value.value\r\n\r\ndefine function Tobase64Binary(value FHIR.base64Binary):\r\n  value.value\r\n\r\ndefine function ToString(value FHIR.DeviceUseStatementStatus):\r\n  value.value\r\n\r\ndefine function ToString(value FHIR.AuditEventAgentNetworkType):\r\n  value.value\r\n\r\ndefine function ToString(value FHIR.AddressUse):\r\n  value.value\r\n\r\ndefine function ToString(value FHIR.ConditionalDeleteStatus):\r\n  value.value\r\n\r\ndefine function ToString(value FHIR.ContactPointUse):\r\n  value.value\r\n\r\ndefine function ToString(value FHIR.DeviceMetricOperationalStatus):\r\n  value.value\r\n\r\ndefine function ToString(value FHIR.NutritionOrderStatus):\r\n  value.value\r\n\r\ndefine function ToString(value FHIR.uri):\r\n  value.value\r\n\r\ndefine function ToString(value FHIR.ContributorType):\r\n  value.value\r\n\r\ndefine function ToString(value FHIR.ReferenceVersionRules):\r\n  value.value\r\n\r\ndefine function ToString(value FHIR.Use):\r\n  value.value\r\n\r\ndefine function ToString(value FHIR.IdentityAssuranceLevel):\r\n  value.value\r\n\r\ndefine function ToString(value FHIR.MeasureReportStatus):\r\n  value.value\r\n\r\ndefine function ToString(value FHIR.DeviceMetricColor):\r\n  value.value\r\n\r\ndefine function ToString(value FHIR.SearchEntryMode):\r\n  value.value\r\n\r\ndefine function ToTime(value FHIR.time):\r\n  value.value\r\n\r\ndefine function ToString(value FHIR.ConditionalReadStatus):\r\n  value.value\r\n\r\ndefine function ToString(value FHIR.ConditionVerificationStatus):\r\n  value.value\r\n\r\ndefine function ToString(value FHIR.AllergyIntoleranceSeverity):\r\n  value.value\r\n\r\ndefine function ToString(value FHIR.FinancialResourceStatusCodes):\r\n  value.value\r\n\r\ndefine function ToString(value FHIR.OperationKind):\r\n  value.value\r\n\r\ndefine function ToString(value FHIR.ObservationRelationshipType):\r\n  value.value\r\n\r\ndefine function ToInteger(value FHIR.unsignedInt):\r\n  value.value\r\n\r\ndefine function ToString(value FHIR.NameUse):\r\n  value.value\r\n\r\ndefine function ToString(value FHIR.SubscriptionStatus):\r\n  value.value\r\n\r\ndefine function ToString(value FHIR.DocumentReferenceStatus):\r\n  value.value\r\n\r\ndefine function ToString(value FHIR.LocationMode):\r\n  value.value\r\n\r\ndefine function ToInteger(value FHIR.integer):\r\n  value.value\r\n\r\ndefine function ToString(value FHIR.repositoryType):\r\n  value.value\r\n\r\ndefine function ToString(value FHIR.LocationStatus):\r\n  value.value\r\n\r\ndefine function ToString(value FHIR.FHIRSubstanceStatus):\r\n  value.value\r\n\r\ndefine function ToString(value FHIR.UnknownContentCode):\r\n  value.value\r\n\r\ndefine function ToString(value FHIR.NoteType):\r\n  value.value\r\n\r\ndefine function ToString(value FHIR.TestReportStatus):\r\n  value.value\r\n\r\ndefine function ToString(value FHIR.HTTPVerb):\r\n  value.value\r\n\r\ndefine function ToString(value FHIR.CodeSystemContentMode):\r\n  value.value\r\n\r\ndefine function ToString(value FHIR.EpisodeOfCareStatus):\r\n  value.value\r\n\r\ndefine function ToString(value FHIR.RemittanceOutcome):\r\n  value.value\r\n\r\ndefine function ToString(value FHIR.FHIRDeviceStatus):\r\n  value.value\r\n\r\ndefine function ToString(value FHIR.ContactPointSystem):\r\n  value.value\r\n\r\ndefine function ToString(value FHIR.SlotStatus):\r\n  value.value\r\n\r\ndefine function ToString(value FHIR.PropertyType):\r\n  value.value\r\n\r\ndefine function ToString(value FHIR.markdown):\r\n  value.value\r\n\r\ndefine function ToString(value FHIR.TypeDerivationRule):\r\n  value.value\r\n\r\ndefine function ToString(value FHIR.MedicationStatementStatus):\r\n  value.value\r\n\r\ndefine function ToString(value FHIR.GuidanceResponseStatus):\r\n  value.value\r\n\r\ndefine function ToString(value FHIR.QuantityComparator):\r\n  value.value\r\n\r\ndefine function ToString(value FHIR.RelatedArtifactType):\r\n  value.value\r\n\r\ndefine function ToString(value FHIR.oid):\r\n  value.value\r\n\r\ndefine function ToString(value FHIR.MeasureReportType):\r\n  value.value\r\n\r\ndefine function ToString(value FHIR.ActionPrecheckBehavior):\r\n  value.value\r\n\r\ndefine function ToString(value FHIR.SampledDataDataType):\r\n  value.value\r\n\r\ndefine function ToString(value FHIR.MedicationStatementTaken):\r\n  value.value\r\n\r\ndefine function ToString(value FHIR.CompartmentType):\r\n  value.value\r\n\r\ndefine function ToString(value FHIR.CompositionAttestationMode):\r\n  value.value\r\n\r\ndefine function ToString(value FHIR.DeviceMetricCalibrationState):\r\n  value.value\r\n\r\ndefine function ToString(value FHIR.GroupType):\r\n  value.value\r\n\r\ndefine function ToString(value FHIR.TypeRestfulInteraction):\r\n  value.value\r\n\r\ndefine function ToString(value FHIR.CodeSystemHierarchyMeaning):\r\n  value.value\r\n\r\ndefine function ToString(value FHIR.VisionBase):\r\n  value.value\r\n\r\ndefine function ToString(value FHIR.BundleType):\r\n  value.value\r\n\r\ndefine function ToString(value FHIR.SystemVersionProcessingMode):\r\n  value.value</code></pre>\r\n                    \r\n                    \r\n                </td>\r\n            </tr>\r\n        \r\n        \r\n            \r\n            \r\n        \r\n    </table>\r\n</div>"
        },
        "url": "http://hl7.org/fhir/us/cqfmeasures/Library/library-fhir-helpers",
        "identifier": [
          {
            "use": "official",
            "system": "http://example.org/fhir/cqi/ecqm/Library/Identifier",
            "value": "FHIRHelpers"
          }
        ],
        "version": "3.0.0",
        "name": "FHIRHelpers",
        "title": "FHIR Helpers",
        "status": "active",
        "experimental": true,
        "type": {
          "coding": [
            {
              "system": "http://hl7.org/fhir/library-type",
              "code": "logic-library"
            }
          ]
        },
        "date": "2019-09-03",
        "publisher": "Health Level 7 International - Clinical Quality Information Work Group",
        "description": "This library is used as an example in the FHIR Quality Measure Implementation Guide",
        "approvalDate": "2019-08-03",
        "lastReviewDate": "2019-08-03",
        "contact": [
          {
            "telecom": [
              {
                "system": "url",
                "value": "http://www.hl7.org/Special/committees/cqi/index.cfm"
              }
            ]
          }
        ],
        "relatedArtifact": [
          {
            "type": "depends-on",
            "resource": {
              "reference": "Library/MitreTestScript-library-fhir-model-definition"
            }
          }
        ],
        "content": [
          {
            "contentType": "text/cql",
            "data": ""
          },
          {
            "contentType": "application/elm+xml",
            "data": ""
          }
        ]
      },
      "request": {
        "method": "PUT",
        "url": "Library/MitreTestScript-library-fhir-helpers"
      }
    },
    {
      "resource": {
        "resourceType": "Library",
        "id": "MitreTestScript-library-col-logic",
        "meta": {
          "versionId": "1",
          "lastUpdated": "2019-08-06T16:45:35.590+00:00"
        },
        "text": {
          "status": "generated",
          "div": "<div xmlns=\"http://www.w3.org/1999/xhtml\"><table class=\"grid dict\"><tr><th scope=\"row\"><b>Id: </b></th><td style=\"padding-left: 25px; padding-right: 25px;\">Library/library-col-logic/_history/3</td></tr><tr><th scope=\"row\"><b>Type: </b></th><td style=\"padding-right: 25px;\"><span><br/><span><span style=\"padding-left: 25px;\"><b>code: </b><span>logic-library</span></span></span></span></td></tr><tr><th scope=\"row\"><b>Version: </b></th><td style=\"padding-left: 25px; padding-right: 25px;\">1.0.1</td></tr><tr><th scope=\"row\"><b>Status: </b></th><td style=\"padding-left: 25px; padding-right: 25px;\">active</td></tr><tr style=\"vertical-align: top;\"><th rowspan=\"18\" scope=\"row\"><b>Data Requirements: </b></th><td style=\"padding-left: 25px; padding-right: 25px;\"><div xmlns=\"http://www.w3.org/1999/xhtml\"><p style=\"margin-bottom: 5px;\"><b>type: </b><span>Observation</span></p><p style=\"margin-bottom: 5px;\"><b>code filter:</b><br/><span style=\"padding-left: 25px;\"><b>path: </b><span>code</span></span><br/><span style=\"padding-left: 25px;\"><b>valueset: </b><span>2.16.840.1.113883.3.464.1004.1093.41</span></span></p></div></td></tr><tr style=\"vertical-align: top;\"><td style=\"padding-left: 25px; padding-right: 25px;\"><div xmlns=\"http://www.w3.org/1999/xhtml\"><p style=\"margin-bottom: 5px;\"><b>type: </b><span>Observation</span></p><p style=\"margin-bottom: 5px;\"><b>code filter:</b><br/><span style=\"padding-left: 25px;\"><b>path: </b><span>code</span></span><br/><span style=\"padding-left: 25px;\"><b>valueset: </b><span>2.16.840.1.113883.3.464.1004.1093.42</span></span></p></div></td></tr><tr style=\"vertical-align: top;\"><td style=\"padding-left: 25px; padding-right: 25px;\"><div xmlns=\"http://www.w3.org/1999/xhtml\"><p style=\"margin-bottom: 5px;\"><b>type: </b><span>Observation</span></p><p style=\"margin-bottom: 5px;\"><b>code filter:</b><br/><span style=\"padding-left: 25px;\"><b>path: </b><span>code</span></span><br/><span style=\"padding-left: 25px;\"><b>valueset: </b><span>2.16.840.1.113883.3.464.1004.1093.43</span></span></p></div></td></tr><tr style=\"vertical-align: top;\"><td style=\"padding-left: 25px; padding-right: 25px;\"><div xmlns=\"http://www.w3.org/1999/xhtml\"><p style=\"margin-bottom: 5px;\"><b>type: </b><span>DiagnosticReport</span></p><p style=\"margin-bottom: 5px;\"><b>code filter:</b><br/><span style=\"padding-left: 25px;\"><b>path: </b><span>code</span></span><br/><span style=\"padding-left: 25px;\"><b>valueset: </b><span>2.16.840.1.113883.3.464.1004.1102.38</span></span></p></div></td></tr><tr style=\"vertical-align: top;\"><td style=\"padding-left: 25px; padding-right: 25px;\"><div xmlns=\"http://www.w3.org/1999/xhtml\"><p style=\"margin-bottom: 5px;\"><b>type: </b><span>DiagnosticReport</span></p><p style=\"margin-bottom: 5px;\"><b>code filter:</b><br/><span style=\"padding-left: 25px;\"><b>path: </b><span>code</span></span><br/><span style=\"padding-left: 25px;\"><b>valueset: </b><span>2.16.840.1.113883.3.464.1004.1102.39</span></span></p></div></td></tr><tr style=\"vertical-align: top;\"><td style=\"padding-left: 25px; padding-right: 25px;\"><div xmlns=\"http://www.w3.org/1999/xhtml\"><p style=\"margin-bottom: 5px;\"><b>type: </b><span>DiagnosticReport</span></p><p style=\"margin-bottom: 5px;\"><b>code filter:</b><br/><span style=\"padding-left: 25px;\"><b>path: </b><span>code</span></span><br/><span style=\"padding-left: 25px;\"><b>valueset: </b><span>2.16.840.1.113883.3.464.1004.1102.40</span></span></p></div></td></tr><tr style=\"vertical-align: top;\"><td style=\"padding-left: 25px; padding-right: 25px;\"><div xmlns=\"http://www.w3.org/1999/xhtml\"><p style=\"margin-bottom: 5px;\"><b>type: </b><span>DiagnosticReport</span></p><p style=\"margin-bottom: 5px;\"><b>code filter:</b><br/><span style=\"padding-left: 25px;\"><b>path: </b><span>code</span></span><br/><span style=\"padding-left: 25px;\"><b>valueset: </b><span>2.16.840.1.113883.3.464.1004.1064.29</span></span></p></div></td></tr><tr style=\"vertical-align: top;\"><td style=\"padding-left: 25px; padding-right: 25px;\"><div xmlns=\"http://www.w3.org/1999/xhtml\"><p style=\"margin-bottom: 5px;\"><b>type: </b><span>DiagnosticReport</span></p><p style=\"margin-bottom: 5px;\"><b>code filter:</b><br/><span style=\"padding-left: 25px;\"><b>path: </b><span>code</span></span><br/><span style=\"padding-left: 25px;\"><b>valueset: </b><span>2.16.840.1.113883.3.464.1004.1064.30</span></span></p></div></td></tr><tr style=\"vertical-align: top;\"><td style=\"padding-left: 25px; padding-right: 25px;\"><div xmlns=\"http://www.w3.org/1999/xhtml\"><p style=\"margin-bottom: 5px;\"><b>type: </b><span>DiagnosticReport</span></p><p style=\"margin-bottom: 5px;\"><b>code filter:</b><br/><span style=\"padding-left: 25px;\"><b>path: </b><span>code</span></span><br/><span style=\"padding-left: 25px;\"><b>valueset: </b><span>2.16.840.1.113883.3.464.1004.1064.31</span></span></p></div></td></tr><tr style=\"vertical-align: top;\"><td style=\"padding-left: 25px; padding-right: 25px;\"><div xmlns=\"http://www.w3.org/1999/xhtml\"><p style=\"margin-bottom: 5px;\"><b>type: </b><span>DiagnosticReport</span></p><p style=\"margin-bottom: 5px;\"><b>code filter:</b><br/><span style=\"padding-left: 25px;\"><b>path: </b><span>code</span></span><br/><span style=\"padding-left: 25px;\"><b>valueset: </b><span>2.16.840.1.113883.3.464.1004.1421.34</span></span></p></div></td></tr><tr style=\"vertical-align: top;\"><td style=\"padding-left: 25px; padding-right: 25px;\"><div xmlns=\"http://www.w3.org/1999/xhtml\"><p style=\"margin-bottom: 5px;\"><b>type: </b><span>Observation</span></p><p style=\"margin-bottom: 5px;\"><b>code filter:</b><br/><span style=\"padding-left: 25px;\"><b>path: </b><span>code</span></span><br/><span style=\"padding-left: 25px;\"><b>valueset: </b><span>2.16.840.1.113883.3.464.1004.1420.35</span></span></p></div></td></tr><tr style=\"vertical-align: top;\"><td style=\"padding-left: 25px; padding-right: 25px;\"><div xmlns=\"http://www.w3.org/1999/xhtml\"><p style=\"margin-bottom: 5px;\"><b>type: </b><span>Observation</span></p><p style=\"margin-bottom: 5px;\"><b>code filter:</b><br/><span style=\"padding-left: 25px;\"><b>path: </b><span>code</span></span><br/><span style=\"padding-left: 25px;\"><b>valueset: </b><span>2.16.840.1.113883.3.464.1004.1420.36</span></span></p></div></td></tr><tr style=\"vertical-align: top;\"><td style=\"padding-left: 25px; padding-right: 25px;\"><div xmlns=\"http://www.w3.org/1999/xhtml\"><p style=\"margin-bottom: 5px;\"><b>type: </b><span>Observation</span></p><p style=\"margin-bottom: 5px;\"><b>code filter:</b><br/><span style=\"padding-left: 25px;\"><b>path: </b><span>code</span></span><br/><span style=\"padding-left: 25px;\"><b>valueset: </b><span>2.16.840.1.113883.3.464.1004.1420.37</span></span></p></div></td></tr><tr style=\"vertical-align: top;\"><td style=\"padding-left: 25px; padding-right: 25px;\"><div xmlns=\"http://www.w3.org/1999/xhtml\"><p style=\"margin-bottom: 5px;\"><b>type: </b><span>Condition</span></p><p style=\"margin-bottom: 5px;\"><b>code filter:</b><br/><span style=\"padding-left: 25px;\"><b>path: </b><span>code</span></span><br/><span style=\"padding-left: 25px;\"><b>valueset: </b><span>2.16.840.1.113883.3.464.1004.1065.32</span></span></p></div></td></tr><tr style=\"vertical-align: top;\"><td style=\"padding-left: 25px; padding-right: 25px;\"><div xmlns=\"http://www.w3.org/1999/xhtml\"><p style=\"margin-bottom: 5px;\"><b>type: </b><span>Condition</span></p><p style=\"margin-bottom: 5px;\"><b>code filter:</b><br/><span style=\"padding-left: 25px;\"><b>path: </b><span>code</span></span><br/><span style=\"padding-left: 25px;\"><b>valueset: </b><span>2.16.840.1.113883.3.464.1004.1065.33</span></span></p></div></td></tr><tr style=\"vertical-align: top;\"><td style=\"padding-left: 25px; padding-right: 25px;\"><div xmlns=\"http://www.w3.org/1999/xhtml\"><p style=\"margin-bottom: 5px;\"><b>type: </b><span>Procedure</span></p><p style=\"margin-bottom: 5px;\"><b>code filter:</b><br/><span style=\"padding-left: 25px;\"><b>path: </b><span>code</span></span><br/><span style=\"padding-left: 25px;\"><b>valueset: </b><span>2.16.840.1.113883.3.464.1004.1250.44</span></span></p></div></td></tr><tr style=\"vertical-align: top;\"><td style=\"padding-left: 25px; padding-right: 25px;\"><div xmlns=\"http://www.w3.org/1999/xhtml\"><p style=\"margin-bottom: 5px;\"><b>type: </b><span>Procedure</span></p><p style=\"margin-bottom: 5px;\"><b>code filter:</b><br/><span style=\"padding-left: 25px;\"><b>path: </b><span>code</span></span><br/><span style=\"padding-left: 25px;\"><b>valueset: </b><span>2.16.840.1.113883.3.464.1004.1250.45</span></span></p></div></td></tr><tr style=\"vertical-align: top;\"><td style=\"padding-left: 25px; padding-right: 25px;\"><div xmlns=\"http://www.w3.org/1999/xhtml\"><p style=\"margin-bottom: 5px;\"><b>type: </b><span>Procedure</span></p><p style=\"margin-bottom: 5px;\"><b>code filter:</b><br/><span style=\"padding-left: 25px;\"><b>path: </b><span>code</span></span><br/><span style=\"padding-left: 25px;\"><b>valueset: </b><span>2.16.840.1.113883.3.464.1004.1250.46</span></span></p></div></td></tr>        <!-- Filter down to human readable content --><tr style=\"vertical-align: top;\"><th scope=\"row\"><b>Content: </b></th><td style=\"padding-left: 25px; padding-right: 25px;\"><b>type: </b><span>text/cql</span></td></tr><tr><td colspan=\"2\" style=\"padding-left: 25px; padding-right: 25px;\"><pre><code class=\"language-cql\">/*\nColorectal Cancer Screening (COL)\n*/library COL_FHIR version '1.0.1'\r\n\r\nusing FHIR version '3.0.0'\n\n/*\nDescription\nThe percentage of members 50-75 years of age who had appropriate screening for colorectal cancer.\n*/\n\n/*\nIt is an outstanding question whether implementers would have an easier time dealing\nwith single code system value sets for retrieval of data, or if the grouping value sets\nare easier to deal with. This mesaure is modified to take the approach of unioning\nthe results in CQL, where the BCS and CCS measures take the grouping value set\napproach.\n*/\r\n\r\nvalueset \"Colonoscopy Value Set (CPT)\": '2.16.840.1.113883.3.464.1004.1064.29' // CPT\r\nvalueset \"Colonoscopy Value Set (HCPCS)\": '2.16.840.1.113883.3.464.1004.1064.30' // HCPCS\r\nvalueset \"Colonoscopy Value Set (ICD9)\": '2.16.840.1.113883.3.464.1004.1064.31' // ICD9CMProc\r\nvalueset \"Colorectal Cancer Value Set (ICD10)\": '2.16.840.1.113883.3.464.1004.1065.32' // ICD10CM\r\nvalueset \"Colorectal Cancer Value Set (ICD9)\": '2.16.840.1.113883.3.464.1004.1065.33' // ICD9CM\r\nvalueset \"CT Colonography Value Set\": '2.16.840.1.113883.3.464.1004.1421.34' // CPT\r\nvalueset \"FIT-DNA Value Set (CPT)\": '2.16.840.1.113883.3.464.1004.1420.35' // CPT\r\nvalueset \"FIT-DNA Value Set (HCPCS)\": '2.16.840.1.113883.3.464.1004.1420.36' // HCPCS\r\nvalueset \"FIT-DNA Value Set (LOINC)\": '2.16.840.1.113883.3.464.1004.1420.37' // LOINC\r\nvalueset \"Flexible Sigmoidoscopy Value Set (CPT)\": '2.16.840.1.113883.3.464.1004.1102.38' // CPT\r\nvalueset \"Flexible Sigmoidoscopy Value Set (HCPCS)\": '2.16.840.1.113883.3.464.1004.1102.39' // HCPCS\r\nvalueset \"Flexible Sigmoidoscopy Value Set (ICD9)\": '2.16.840.1.113883.3.464.1004.1102.40' // ICD9CMProc\r\nvalueset \"FOBT Value Set (CPT)\": '2.16.840.1.113883.3.464.1004.1093.41' // CPT\r\nvalueset \"FOBT Value Set (HCPCS)\": '2.16.840.1.113883.3.464.1004.1093.42' // HCPCS\r\nvalueset \"FOBT Value Set (ICD9)\": '2.16.840.1.113883.3.464.1004.1093.43' // ICD9CMProc\r\nvalueset \"Total Colectomy Value Set (CPT)\": '2.16.840.1.113883.3.464.1004.1250.44' // CPT\r\nvalueset \"Total Colectomy Value Set (ICD10)\": '2.16.840.1.113883.3.464.1004.1250.45' // ICD10PCS\r\nvalueset \"Total Colectomy Value Set (ICD9)\": '2.16.840.1.113883.3.464.1004.1250.46' // ICD9CMProc\n\n/*\nThis library has an explicit parameter which is the product line.\nRecognized normal arguments are {'commercial', 'medicaid', 'medicare'}.\nIf one of these normal arguments is given, the patient will only be\nconsidered to be in the Initial Population if they have an appropriate\ncontinuous enrollment in that kind of medical plan.\nIf instead a null argument is given, their enrollment status will have no\neffect on whether they are considered to be in the Initial Population.\nIf instead some other argument is given (an unrecognized plan type),\nthe patient will unconditionally NOT be in the Initial Population.\n*/\r\n\r\nparameter \"Product Line\" String\n\n/*\nThis library has an explicit parameter which is the measurement year.\nWhile the actual parameter's type accepts all intervals, this library\nexpects it will only be given arguments corresponding exactly to one whole\ncalendar year, and it will not behave properly otherwise; 2017 for example:\nInterval[DateTime(2017,1,1,0,0,0,0), DateTime(2018,1,1,0,0,0,0))\n*/\r\nparameter \"Measurement Period\" Interval&lt;DateTime&gt;\r\n\r\ndefine \"Lookback Interval Two More Years\":\r\n  Interval[start of \"Measurement Period\" - 2 years, \r\n  end of \"Measurement Period\" )\r\n\r\ndefine \"Lookback Interval Four More Years\":\r\n  Interval[start of \"Measurement Period\" - 4 years, \r\n  end of \"Measurement Period\" )\r\n\r\ndefine \"Lookback Interval Nine More Years\":\r\n  Interval[start of \"Measurement Period\" - 9 years, \r\n  end of \"Measurement Period\" )\n\n/*\nThis library evaluates with respect to exactly 1 candidate patient at a time,\nthat patient being given by the special context parameter Patient.\n*/\r\n\r\ncontext Patient\n\n/*\nInitial Population\nProduct lines -- Commercial, Medicaid, Medicare (report each product line separately).\n*/\r\n\r\ndefine \"Initial Population\":\r\n  \"Is Age 51 to 75 at End\"\r\n\r\ndefine \"Is Age 51 to 75 at End\":\r\n  CalendarAgeInYearsAt(Patient.birthDate.value, \r\n    end of \"Measurement Period\"\r\n  )between 51 and 75\r\n\r\ndefine \"Denominator\":\n\t// was \"Initial Population\", but that will always be true if this expression is executed\r\n  true\r\n\r\ndefine \"Numerator\":\r\n  \"Is Colorectal Cancer Screening\"\r\n\r\ndefine \"Is Colorectal Cancer Screening\":\r\n  \"Is Fecal Occult Blood Test In Last Year\"\r\n    or \"Is Flexible Sigmoidoscopy In Last Five Years\"\r\n    or \"Is Colonoscopy In Last Ten Years\"\r\n    or \"Is CT Colonography In Last Five Years\"\r\n    or \"Is FIT-DNA Test In Last Three Years\"\r\n\r\ndefine \"FOBT Observations\":\r\n  [Observation: \"FOBT Value Set (CPT)\"]\r\n    union [Observation: \"FOBT Value Set (HCPCS)\"]\r\n    union [Observation: \"FOBT Value Set (ICD9)\"]\r\n\r\ndefine \"Is Fecal Occult Blood Test In Last Year\":\r\n  exists ( \"FOBT Observations\" Obs\r\n      where Obs.status.value in { 'final', 'amended' }\r\n        and Obs.effective.value in day of \"Measurement Period\"\r\n  )\r\n\r\ndefine \"Flexible Sigmoidoscopy Reports\":\r\n  [DiagnosticReport: \"Flexible Sigmoidoscopy Value Set (CPT)\"]\r\n    union [DiagnosticReport: \"Flexible Sigmoidoscopy Value Set (HCPCS)\"]\r\n    union [DiagnosticReport: \"Flexible Sigmoidoscopy Value Set (ICD9)\"]\r\n\r\ndefine \"Is Flexible Sigmoidoscopy In Last Five Years\":\r\n  exists ( \"Flexible Sigmoidoscopy Reports\" DiagRep\r\n      where DiagRep.status.value in { 'preliminary', 'final', 'amended', 'corrected', 'appended' }\r\n        and PeriodToIntervalOfDT(DiagRep.effective)overlaps day of \"Lookback Interval Four More Years\"\r\n  )\r\n\r\ndefine \"Colonoscopy Reports\":\r\n  [DiagnosticReport: \"Colonoscopy Value Set (CPT)\"]\r\n    union [DiagnosticReport: \"Colonoscopy Value Set (HCPCS)\"]\r\n    union [DiagnosticReport: \"Colonoscopy Value Set (ICD9)\"]\r\n\r\ndefine \"Is Colonoscopy In Last Ten Years\":\r\n  exists ( \"Colonoscopy Reports\" DiagRep\r\n      where DiagRep.status.value in { 'preliminary', 'final', 'amended', 'corrected', 'appended' }\r\n        and PeriodToIntervalOfDT(DiagRep.effective)overlaps day of \"Lookback Interval Nine More Years\"\r\n  )\r\n\r\ndefine \"Is CT Colonography In Last Five Years\":\r\n  exists ( [DiagnosticReport: \"CT Colonography Value Set\"] DiagRep\r\n      where DiagRep.status.value in { 'preliminary', 'final', 'amended', 'corrected', 'appended' }\r\n        and PeriodToIntervalOfDT(DiagRep.effective)overlaps day of \"Lookback Interval Four More Years\"\r\n  )\r\n\r\ndefine \"FIT-DNA Observations\":\r\n  [Observation: \"FIT-DNA Value Set (CPT)\"]\r\n    union [Observation: \"FIT-DNA Value Set (HCPCS)\"]\r\n    union [Observation: \"FIT-DNA Value Set (LOINC)\"]\r\n\r\ndefine \"Is FIT-DNA Test In Last Three Years\":\r\n  exists ( \"FIT-DNA Observations\" Obs\r\n      where Obs.status.value in { 'final', 'amended' }\r\n        and Obs.effective.value in day of \"Lookback Interval Two More Years\"\r\n  )\r\n\r\ndefine \"Denominator Exclusion\":\r\n  \"Is Colorectal Cancer\"\r\n    or \"Is Total Colectomy\"\r\n\r\ndefine \"Colorectal Cancer Conditions\":\r\n  [Condition: \"Colorectal Cancer Value Set (ICD10)\"]\r\n    union [Condition: \"Colorectal Cancer Value Set (ICD9)\"]\r\n\r\ndefine \"Is Colorectal Cancer\":\r\n  exists ( \"Colorectal Cancer Conditions\" Cond\r\n      where Cond.verificationStatus.value = 'confirmed'\r\n        and Cond.assertedDate.value before day of \r\n        end of \"Measurement Period\"\r\n  )\r\n\r\ndefine \"Total Colectomy Procedures\":\r\n  [Procedure: \"Total Colectomy Value Set (CPT)\"]\r\n    union [Procedure: \"Total Colectomy Value Set (ICD10)\"]\r\n    union [Procedure: \"Total Colectomy Value Set (ICD9)\"]\r\n\r\ndefine \"Is Total Colectomy\":\r\n  exists ( \"Total Colectomy Procedures\" Proc\r\n      where Proc.status.value = 'completed'\r\n        and \r\n        end of PeriodToIntervalOfDT(Proc.performed)before day of \r\n        end of \"Measurement Period\"\r\n  )\n\n/*\nUtility Functions\n*/\r\n\r\ndefine function PeriodToIntervalOfDT(value FHIR.Period):\r\n  Interval[value.\"start\".value, value.\"end\".value]\r\n\r\ndefine function CodingToCode(coding FHIR.Coding):\r\n  System.Code { code: coding.code.value, system: coding.system.value, version: coding.version.value, display: coding.display.value }\n\t// From FHIRHelpers\r\n\r\ndefine function \"ToDate\"(Value DateTime):\r\n  DateTime(year from Value, month from Value, day from Value, 0, 0, 0, 0, timezone from Value)\r\n\r\ndefine function CalendarAgeInYearsAt(BirthDateTime DateTime, AsOf DateTime):\r\n  years between ToDate(BirthDateTime)and ToDate(AsOf)\r\n</code></pre>\n                    \n                    \n                </td>\n            </tr>\n        \n        \n            \n            \n        \n    </table>\n</div>"
        },
        "version": "1.0.1",
        "name": "COL_FHIR",
        "status": "active",
        "experimental": true,
        "type": {
          "coding": [
            {
              "code": "logic-library"
            }
          ]
        },
        "date": "2017-05-05",
        "publisher": "National Committee for Quality Assurance",
        "copyright": "© 2018 by the National Committee for Quality Assurance, all rights reserved.",
        "relatedArtifact": [
          {
            "type": "depends-on",
            "resource": {
              "reference": "Library/MitreTestScript-library-fhir-helpers"
            }
          },
          {
            "type": "depends-on",
            "resource": {
              "reference": "Library/MitreTestScript-library-common-logic"
            }
          },
          {
            "type": "depends-on",
            "resource": {
              "reference": "Library/MitreTestScript-library-participation-logic"
            }
          }
        ],
        "dataRequirement": [
          {
            "type": "Encounter",
            "codeFilter": [
              {
                "path": "type",
                "valueSetString": "urn:oid:2.16.840.1.113762.1.4.1165.43"
              }
            ]
          },
          {
            "type": "Encounter",
            "codeFilter": [
              {
                "path": "type",
                "valueSetString": "urn:oid:2.16.840.1.113883.3.666.5.307"
              }
            ]
          },
          {
            "type": "Task",
            "codeFilter": [
              {
                "path": "code",
                "valueSetString": "urn:oid:2.16.840.1.113883.3.464.1003.101.12.1014"
              }
            ]
          },
          {
            "type": "Encounter",
            "codeFilter": [
              {
                "path": "type",
                "valueSetString": "urn:oid:2.16.840.1.113883.3.666.5.307"
              }
            ]
          },
          {
            "type": "Task",
            "codeFilter": [
              {
                "path": "code",
                "valueSetString": "urn:oid:2.16.840.1.113762.1.4.1108.15"
              }
            ]
          },
          {
            "type": "Coverage",
            "codeFilter": [
              {
                "path": "type",
                "valueSetString": "urn:oid:2.16.840.1.113762.1.4.1165.46"
              }
            ]
          },
          {
            "type": "Coverage",
            "codeFilter": [
              {
                "path": "type",
                "valueSetString": "urn:oid:2.16.840.1.113762.1.4.1165.44"
              }
            ]
          },
          {
            "type": "Coverage",
            "codeFilter": [
              {
                "path": "type",
                "valueSetString": "urn:oid:2.16.840.1.113762.1.4.1165.45"
              }
            ]
          },
          {
            "type": "Coverage",
            "codeFilter": [
              {
                "path": "type",
                "valueSetString": "urn:oid:2.16.840.1.113762.1.4.1165.46"
              }
            ]
          },
          {
            "type": "Coverage",
            "codeFilter": [
              {
                "path": "type",
                "valueSetString": "urn:oid:2.16.840.1.113762.1.4.1165.45"
              }
            ]
          },
          {
            "type": "Coverage",
            "codeFilter": [
              {
                "path": "type",
                "valueSetString": "urn:oid:2.16.840.1.113762.1.4.1165.44"
              }
            ]
          },
          {
            "type": "Observation",
            "codeFilter": [
              {
                "path": "code",
                "valueSetString": "2.16.840.1.113883.3.464.1004.1093.41"
              }
            ]
          },
          {
            "type": "Observation",
            "codeFilter": [
              {
                "path": "code",
                "valueSetString": "2.16.840.1.113883.3.464.1004.1093.42"
              }
            ]
          },
          {
            "type": "Observation",
            "codeFilter": [
              {
                "path": "code",
                "valueSetString": "2.16.840.1.113883.3.464.1004.1093.43"
              }
            ]
          },
          {
            "type": "DiagnosticReport",
            "codeFilter": [
              {
                "path": "code",
                "valueSetString": "2.16.840.1.113883.3.464.1004.1102.38"
              }
            ]
          },
          {
            "type": "DiagnosticReport",
            "codeFilter": [
              {
                "path": "code",
                "valueSetString": "2.16.840.1.113883.3.464.1004.1102.39"
              }
            ]
          },
          {
            "type": "DiagnosticReport",
            "codeFilter": [
              {
                "path": "code",
                "valueSetString": "2.16.840.1.113883.3.464.1004.1102.40"
              }
            ]
          },
          {
            "type": "DiagnosticReport",
            "codeFilter": [
              {
                "path": "code",
                "valueSetString": "2.16.840.1.113883.3.464.1004.1064.29"
              }
            ]
          },
          {
            "type": "DiagnosticReport",
            "codeFilter": [
              {
                "path": "code",
                "valueSetString": "2.16.840.1.113883.3.464.1004.1064.30"
              }
            ]
          },
          {
            "type": "DiagnosticReport",
            "codeFilter": [
              {
                "path": "code",
                "valueSetString": "2.16.840.1.113883.3.464.1004.1064.31"
              }
            ]
          },
          {
            "type": "DiagnosticReport",
            "codeFilter": [
              {
                "path": "code",
                "valueSetString": "2.16.840.1.113883.3.464.1004.1421.34"
              }
            ]
          },
          {
            "type": "Observation",
            "codeFilter": [
              {
                "path": "code",
                "valueSetString": "2.16.840.1.113883.3.464.1004.1420.35"
              }
            ]
          },
          {
            "type": "Observation",
            "codeFilter": [
              {
                "path": "code",
                "valueSetString": "2.16.840.1.113883.3.464.1004.1420.36"
              }
            ]
          },
          {
            "type": "Observation",
            "codeFilter": [
              {
                "path": "code",
                "valueSetString": "2.16.840.1.113883.3.464.1004.1420.37"
              }
            ]
          },
          {
            "type": "Condition",
            "codeFilter": [
              {
                "path": "code",
                "valueSetString": "2.16.840.1.113883.3.464.1004.1065.32"
              }
            ]
          },
          {
            "type": "Condition",
            "codeFilter": [
              {
                "path": "code",
                "valueSetString": "2.16.840.1.113883.3.464.1004.1065.33"
              }
            ]
          },
          {
            "type": "Procedure",
            "codeFilter": [
              {
                "path": "code",
                "valueSetString": "2.16.840.1.113883.3.464.1004.1250.44"
              }
            ]
          },
          {
            "type": "Procedure",
            "codeFilter": [
              {
                "path": "code",
                "valueSetString": "2.16.840.1.113883.3.464.1004.1250.45"
              }
            ]
          },
          {
            "type": "Procedure",
            "codeFilter": [
              {
                "path": "code",
                "valueSetString": "2.16.840.1.113883.3.464.1004.1250.46"
              }
            ]
          }
        ],
        "content": [
          {
            "contentType": "application/elm+xml",
            "data": ""
          },
          {
            "contentType": "text/cql",
            "data": ""
          }
        ]
      },
      "request": {
        "method": "PUT",
        "url": "Library/MitreTestScript-library-col-logic"
      }
    },
    {
      "resource": {
        "resourceType": "Measure",
        "id": "MitreTestScript-measure-col",
        "meta": {
          "versionId": "1",
          "lastUpdated": "2019-08-06T16:45:35.750+00:00"
        },
        "text": {
          "status": "generated"
        },
        "identifier": [
          {
            "use": "official",
            "system": "http://hl7.org/fhir/cqi/ecqm/Measure/Identifier/payer-extract",
            "value": "COL"
          }
        ],
        "version": "1.0.0",
        "title": "Colorectal Cancer Screening. Cohort Definition",
        "status": "active",
        "experimental": true,
        "date": "2015-03-08",
        "description": "Colorectal Cancer Screening. Cohort Definition",
        "topic": [
          {
            "coding": [
              {
                "system": "http://hl7.org/fhir/c80-doc-typecodes",
                "code": "57024-2"
              }
            ]
          }
        ],
        "library": [
          {
            "reference": "Library/MitreTestScript-library-col-logic"
          }
        ],
        "scoring": {
          "coding": [
            {
              "code": "proportion"
            }
          ]
        },
        "group": [
          {
            "identifier": {
              "value": "COL-cohort"
            },
            "population": [
              {
                "identifier": {
                  "value": "initial-population"
                },
                "code": {
                  "coding": [
                    {
                      "code": "initial-population"
                    }
                  ]
                },
                "criteria": "Initial Population"
              },
              {
                "identifier": {
                  "value": "numerator"
                },
                "code": {
                  "coding": [
                    {
                      "code": "numerator"
                    }
                  ]
                },
                "criteria": "Numerator"
              },
              {
                "identifier": {
                  "value": "denominator"
                },
                "code": {
                  "coding": [
                    {
                      "code": "denominator"
                    }
                  ]
                },
                "criteria": "Denominator"
              }
            ]
          }
        ]
      },
      "request": {
        "method": "PUT",
        "url": "Measure/MitreTestScript-measure-col"
      }
    },
    {
      "resource": {
        "resourceType": "Patient",
        "id": "MitreTestScript-test-Patient-410",
        "meta": {
          "versionId": "1",
          "lastUpdated": "2019-01-12T10:53:57.847+00:00",
          "profile": [
            "http://hl7.org/fhir/us/hedis/StructureDefinition/hedis-patient"
          ]
        },
        "text": {
          "status": "generated",
          "div": "<div xmlns=\"http://www.w3.org/1999/xhtml\"><div class=\"hapiHeaderText\">Bobbie Simon <b>JACKSON </b></div><table class=\"hapiPropertyTable\"><tbody><tr><td>Identifier</td><td>000000410</td></tr><tr><td>Address</td><td><span>34 SW Thames Avenue </span><br/><span>Unit 4 </span><br/><span>Owosso </span><span>MI </span></td></tr><tr><td>Date of birth</td><td><span>15 June 1955</span></td></tr></tbody></table></div>"
        },
        "extension": [
          {
            "url": "http://mihin.org/extension/copyright",
            "valueString": "Copyright 2014-2018 Michigan Health Information Network Shared Services. Licensed under the Apache License, Version 2.0 (the 'License'); you may not use this file except in compliance with the License. You may obtain a copy of the License at  http://www.apache.org/licenses/LICENSE-2.0.  Unless required by applicable law or agreed to in writing, software distributed under the License is distributed on an 'AS IS' BASIS, WITHOUT WARRANTIES OR CONDITIONS OF ANY KIND, either express or implied. See the License for the specific language governing permissions and limitations under the License."
          },
          {
            "url": "http://hl7.org/fhir/us/core/StructureDefinition/us-core-race",
            "valueCodeableConcept": {
              "coding": [
                {
                  "system": "http://hl7.org/fhir/v3/Race",
                  "code": "2106-3",
                  "display": "White"
                }
              ]
            }
          },
          {
            "url": "http://hl7.org/fhir/us/core/StructureDefinition/us-core-ethnicity",
            "valueCodeableConcept": {
              "coding": [
                {
                  "system": "http://hl7.org/fhir/v3/Ethnicity",
                  "code": "2186-5",
                  "display": "Not Hispanic or Latino"
                }
              ]
            }
          },
          {
            "url": "http://hl7.org/fhir/us/core/StructureDefinition/us-core-religion",
            "valueCodeableConcept": {
              "coding": [
                {
                  "system": "http://hl7.org/fhir/v3/ReligiousAffiliation",
                  "code": "1077",
                  "display": "Protestant"
                }
              ]
            }
          }
        ],
        "identifier": [
          {
            "use": "official",
            "type": {
              "coding": [
                {
                  "system": "http://hl7.org/fhir/identifier-type",
                  "code": "SB",
                  "display": "Social Beneficiary Identifier"
                }
              ]
            },
            "system": "http://hl7.org/fhir/sid/us-ssn",
            "value": "000000410"
          },
          {
            "use": "official",
            "type": {
              "coding": [
                {
                  "system": "http://hl7.org/fhir/identifier-type",
                  "code": "SB",
                  "display": "Social Beneficiary Identifier"
                }
              ]
            },
            "system": "http://mihin.org/fhir/cks",
            "value": "9612010d2fc541ee8c77392c05b53e09"
          }
        ],
        "active": true,
        "name": [
          {
            "family": "Jackson",
            "given": [
              "Bobbie",
              "Simon"
            ]
          }
        ],
        "telecom": [
          {
            "system": "phone",
            "value": "989-555-4735",
            "use": "home"
          },
          {
            "system": "phone",
            "value": "989-555-0975",
            "use": "mobile"
          }
        ],
        "gender": "female",
        "birthDate": "1955-06-15",
        "address": [
          {
            "use": "home",
            "type": "postal",
            "line": [
              "34 SW Thames Avenue",
              "Unit 4"
            ],
            "city": "Owosso",
            "district": "Shiawassee County",
            "state": "MI",
            "postalCode": "48867"
          }
        ]
      },
      "request": {
        "method": "PUT",
        "url": "Patient/MitreTestScript-test-Patient-410"
      }
    },
    {
      "resource": {
        "resourceType": "Observation",
        "id": "MitreTestScript-test-Observation-32794",
        "meta": {
          "versionId": "2",
          "lastUpdated": "2019-01-23T18:19:39.465+00:00",
          "profile": [
            "http://hl7.org/fhir/us/hedis/StructureDefinition/hedis-observation"
          ]
        },
        "extension": [
          {
            "url": "http://mihin.org/extension/copyright",
            "valueString": "Copyright 2014-2018 Michigan Health Information Network Shared Services. Licensed under the Apache License, Version 2.0 (the 'License'); you may not use this file except in compliance with the License. You may obtain a copy of the License at http://www.apache.org/licenses/LICENSE-2.0. Unless required by applicable law or agreed to in writing, software distributed under the License is distributed on an 'AS IS' BASIS, WITHOUT WARRANTIES OR CONDITIONS OF ANY KIND, either express or implied. See the License for the specific language governing permissions and limitations under the License."
          }
        ],
        "identifier": [
          {
            "use": "official",
            "system": "mihin.org/fhir/sid/elementId",
            "value": "6f28ad6e-326e-4904-85ea-f5ecb514f352"
          }
        ],
        "status": "final",
        "category": [
          {
            "coding": [
              {
                "system": "http://hl7.org/fhir/observation-category",
                "code": "laboratory",
                "display": "Laboratory"
              }
            ]
          }
        ],
        "code": {
          "coding": [
            {
              "system": "http://www.ama-assn.org/go/cpt",
              "code": "82274"
            }
          ]
        },
        "subject": {
          "reference": "Patient/MitreTestScript-test-Patient-410",
          "display": "Bobbie Simon Jackson"
        },
        "effectiveDateTime": "2017-01-07T00:08:00-05:00",
        "valueString": "NEGATIVE"
      },
      "request": {
        "method": "PUT",
        "url": "Observation/MitreTestScript-test-Observation-32794"
      }
    }
  ]
}